pt_OpenSesame	Version:1.02						Export Folder:~/Documents/_projects/THE-GEO-BEAST-MASTER/theGeoBeastVideoProd/aeProjs/openSesame	Project Folder:~/Documents/_projects/THE-GEO-BEAST-MASTER/theGeoBeastVideoProd/aeProjsProject	BitsPerChannel:8	Blending:0	StartFrame:TIMECODE	FootageStart:SOURCE	Display:TIMECODE	DropFrame:0Folder	Name:FarbflŠchen	ID:6051	FolderID:0Footage Section	0Comp Section	5Comp	Name:City Names	ID:4012	FolderID:0	Width:1080	Height:540	Resolution:1	MB:0	FB:0	Angle:180	Phase:0	Shy:0	PreserveRate:0	PreserveRes:0	Aspect:1	Duration:15.04	FPS:25					BgColor:0;0;0	DropFrame:0Comp	Name:Placemark Basic Marker	ID:4262	FolderID:0	Width:25	Height:25	Resolution:1	MB:0	FB:0	Angle:180	Phase:0	Shy:0	PreserveRate:0	PreserveRes:0	Aspect:1	Duration:30	FPS:25					BgColor:0;0;0	DropFrame:0Comp	Name:Placemarks Citys	ID:4514	FolderID:0	Width:1080	Height:540	Resolution:1	MB:0	FB:0	Angle:180	Phase:0	Shy:0	PreserveRate:0	PreserveRes:0	Aspect:1	Duration:15.04	FPS:25					BgColor:0;0;0	DropFrame:0Comp	Name:PlacemarksMap	ID:3622	FolderID:0	Width:1080	Height:540	Resolution:1	MB:0	FB:0	Angle:180	Phase:0	Shy:0	PreserveRate:0	PreserveRes:0	Aspect:1	Duration:16.04	FPS:25					BgColor:0;0;0	DropFrame:0Comp	Name:PlacemarksMap 2	ID:6039	FolderID:0	Width:1080	Height:540	Resolution:1	MB:0	FB:0	Angle:180	Phase:0	Shy:0	PreserveRate:0	PreserveRes:0	Aspect:1	Duration:16.04	FPS:25					BgColor:1;1;1	DropFrame:0Solid Section	1Solid	Name:Wei§e FarbflŠche 1	ID:6052	FolderID:6051	Width:1080	Height:540	Aspect:1														Color:1;1;1Layer Section	481Layer	Name:Kabul		CompID:4012	Type:Text	Video:1					AutoOrient:NONE	3D:1								Blend:NORMAL				startTime:9.44	inPoint:9.44	outPoint:15.04	Layer	Name:Tiran‰ (Tirana)		CompID:4012	Type:Text	Video:1					AutoOrient:NONE	3D:1								Blend:NORMAL				startTime:9.4	inPoint:9.4	outPoint:15.04	Layer	Name:El Djaza‹r  (Algiers)		CompID:4012	Type:Text	Video:1					AutoOrient:NONE	3D:1								Blend:NORMAL				startTime:9.36	inPoint:9.36	outPoint:15.04	Layer	Name:Pago Pago		CompID:4012	Type:Text	Video:1					AutoOrient:NONE	3D:1								Blend:NORMAL				startTime:9.32	inPoint:9.32	outPoint:15.04	Layer	Name:Andorra la Vella		CompID:4012	Type:Text	Video:1					AutoOrient:NONE	3D:1								Blend:NORMAL				startTime:9.28	inPoint:9.28	outPoint:15.04	Layer	Name:Luanda		CompID:4012	Type:Text	Video:1					AutoOrient:NONE	3D:1								Blend:NORMAL				startTime:9.24	inPoint:9.24	outPoint:15.04	Layer	Name:The Valley		CompID:4012	Type:Text	Video:1					AutoOrient:NONE	3D:1								Blend:NORMAL				startTime:9.2	inPoint:9.2	outPoint:15.04	Layer	Name:St. John's		CompID:4012	Type:Text	Video:1					AutoOrient:NONE	3D:1								Blend:NORMAL				startTime:9.16	inPoint:9.16	outPoint:15.04	Layer	Name:Buenos Aires		CompID:4012	Type:Text	Video:1					AutoOrient:NONE	3D:1								Blend:NORMAL				startTime:9.12	inPoint:9.12	outPoint:15.04	Layer	Name:Yerevan		CompID:4012	Type:Text	Video:1					AutoOrient:NONE	3D:1								Blend:NORMAL				startTime:9.08	inPoint:9.08	outPoint:15.04	Layer	Name:Oranjestad		CompID:4012	Type:Text	Video:1					AutoOrient:NONE	3D:1								Blend:NORMAL				startTime:9.04	inPoint:9.04	outPoint:15.04	Layer	Name:Canberra		CompID:4012	Type:Text	Video:1					AutoOrient:NONE	3D:1								Blend:NORMAL				startTime:9	inPoint:9	outPoint:15.04	Layer	Name:Wien (Vienna)		CompID:4012	Type:Text	Video:1					AutoOrient:NONE	3D:1								Blend:NORMAL				startTime:8.96	inPoint:8.96	outPoint:15.04	Layer	Name:Baku		CompID:4012	Type:Text	Video:1					AutoOrient:NONE	3D:1								Blend:NORMAL				startTime:8.92	inPoint:8.92	outPoint:15.04	Layer	Name:Nassau		CompID:4012	Type:Text	Video:1					AutoOrient:NONE	3D:1								Blend:NORMAL				startTime:8.88	inPoint:8.88	outPoint:15.04	Layer	Name:Al-Manamah (Manama)		CompID:4012	Type:Text	Video:1					AutoOrient:NONE	3D:1								Blend:NORMAL				startTime:8.84	inPoint:8.84	outPoint:15.04	Layer	Name:Dhaka		CompID:4012	Type:Text	Video:1					AutoOrient:NONE	3D:1								Blend:NORMAL				startTime:8.8	inPoint:8.8	outPoint:15.04	Layer	Name:Bridgetown		CompID:4012	Type:Text	Video:1					AutoOrient:NONE	3D:1								Blend:NORMAL				startTime:8.76	inPoint:8.76	outPoint:15.04	Layer	Name:Minsk		CompID:4012	Type:Text	Video:1					AutoOrient:NONE	3D:1								Blend:NORMAL				startTime:8.72	inPoint:8.72	outPoint:15.04	Layer	Name:Belmopan		CompID:4012	Type:Text	Video:1					AutoOrient:NONE	3D:1								Blend:NORMAL				startTime:8.68	inPoint:8.68	outPoint:15.04	Layer	Name:Cotonou		CompID:4012	Type:Text	Video:1					AutoOrient:NONE	3D:1								Blend:NORMAL				startTime:8.64	inPoint:8.64	outPoint:15.04	Layer	Name:Porto-Novo		CompID:4012	Type:Text	Video:1					AutoOrient:NONE	3D:1								Blend:NORMAL				startTime:8.6	inPoint:8.6	outPoint:15.04	Layer	Name:Hamilton		CompID:4012	Type:Text	Video:1					AutoOrient:NONE	3D:1								Blend:NORMAL				startTime:8.56	inPoint:8.56	outPoint:15.04	Layer	Name:Thimphu		CompID:4012	Type:Text	Video:1					AutoOrient:NONE	3D:1								Blend:NORMAL				startTime:8.52	inPoint:8.52	outPoint:15.04	Layer	Name:La Paz		CompID:4012	Type:Text	Video:1					AutoOrient:NONE	3D:1								Blend:NORMAL				startTime:8.48	inPoint:8.48	outPoint:15.04	Layer	Name:Sucre		CompID:4012	Type:Text	Video:1					AutoOrient:NONE	3D:1								Blend:NORMAL				startTime:8.44	inPoint:8.44	outPoint:15.04	Layer	Name:Sarajevo		CompID:4012	Type:Text	Video:1					AutoOrient:NONE	3D:1								Blend:NORMAL				startTime:8.4	inPoint:8.4	outPoint:15.04	Layer	Name:Gaborone		CompID:4012	Type:Text	Video:1					AutoOrient:NONE	3D:1								Blend:NORMAL				startTime:8.36	inPoint:8.36	outPoint:15.04	Layer	Name:Bras¡lia		CompID:4012	Type:Text	Video:1					AutoOrient:NONE	3D:1								Blend:NORMAL				startTime:8.32	inPoint:8.32	outPoint:15.04	Layer	Name:Road Town		CompID:4012	Type:Text	Video:1					AutoOrient:NONE	3D:1								Blend:NORMAL				startTime:8.28	inPoint:8.28	outPoint:15.04	Layer	Name:Bandar Seri Begawan		CompID:4012	Type:Text	Video:1					AutoOrient:NONE	3D:1								Blend:NORMAL				startTime:8.24	inPoint:8.24	outPoint:15.04	Layer	Name:Sofia		CompID:4012	Type:Text	Video:1					AutoOrient:NONE	3D:1								Blend:NORMAL				startTime:8.2	inPoint:8.2	outPoint:15.04	Layer	Name:Ouagadougou		CompID:4012	Type:Text	Video:1					AutoOrient:NONE	3D:1								Blend:NORMAL				startTime:8.16	inPoint:8.16	outPoint:15.04	Layer	Name:Bujumbura		CompID:4012	Type:Text	Video:1					AutoOrient:NONE	3D:1								Blend:NORMAL				startTime:8.12	inPoint:8.12	outPoint:15.04	Layer	Name:Phnum P‚nh (Phnom Penh)		CompID:4012	Type:Text	Video:1					AutoOrient:NONE	3D:1								Blend:NORMAL				startTime:8.08	inPoint:8.08	outPoint:15.04	Layer	Name:Yaound‚		CompID:4012	Type:Text	Video:1					AutoOrient:NONE	3D:1								Blend:NORMAL				startTime:8.04	inPoint:8.04	outPoint:15.04	Layer	Name:Ottawa-Gatineau		CompID:4012	Type:Text	Video:1					AutoOrient:NONE	3D:1								Blend:NORMAL				startTime:8	inPoint:8	outPoint:15.04	Layer	Name:Praia		CompID:4012	Type:Text	Video:1					AutoOrient:NONE	3D:1								Blend:NORMAL				startTime:7.96	inPoint:7.96	outPoint:15.04	Layer	Name:George Town		CompID:4012	Type:Text	Video:1					AutoOrient:NONE	3D:1								Blend:NORMAL				startTime:7.92	inPoint:7.92	outPoint:15.04	Layer	Name:Bangui		CompID:4012	Type:Text	Video:1					AutoOrient:NONE	3D:1								Blend:NORMAL				startTime:7.88	inPoint:7.88	outPoint:15.04	Layer	Name:N'Djam‚na		CompID:4012	Type:Text	Video:1					AutoOrient:NONE	3D:1								Blend:NORMAL				startTime:7.84	inPoint:7.84	outPoint:15.04	Layer	Name:St. Helier		CompID:4012	Type:Text	Video:1					AutoOrient:NONE	3D:1								Blend:NORMAL				startTime:7.8	inPoint:7.8	outPoint:15.04	Layer	Name:Santiago		CompID:4012	Type:Text	Video:1					AutoOrient:NONE	3D:1								Blend:NORMAL				startTime:7.76	inPoint:7.76	outPoint:15.04	Layer	Name:Beijing		CompID:4012	Type:Text	Video:1					AutoOrient:NONE	3D:1								Blend:NORMAL				startTime:7.72	inPoint:7.72	outPoint:15.04	Layer	Name:Hong Kong		CompID:4012	Type:Text	Video:1					AutoOrient:NONE	3D:1								Blend:NORMAL				startTime:7.68	inPoint:7.68	outPoint:15.04	Layer	Name:Macao		CompID:4012	Type:Text	Video:1					AutoOrient:NONE	3D:1								Blend:NORMAL				startTime:7.64	inPoint:7.64	outPoint:15.04	Layer	Name:Bogot 		CompID:4012	Type:Text	Video:1					AutoOrient:NONE	3D:1								Blend:NORMAL				startTime:7.6	inPoint:7.6	outPoint:15.04	Layer	Name:Moroni		CompID:4012	Type:Text	Video:1					AutoOrient:NONE	3D:1								Blend:NORMAL				startTime:7.56	inPoint:7.56	outPoint:15.04	Layer	Name:Brazzaville		CompID:4012	Type:Text	Video:1					AutoOrient:NONE	3D:1								Blend:NORMAL				startTime:7.52	inPoint:7.52	outPoint:15.04	Layer	Name:Rarotonga		CompID:4012	Type:Text	Video:1					AutoOrient:NONE	3D:1								Blend:NORMAL				startTime:7.48	inPoint:7.48	outPoint:15.04	Layer	Name:San Jos‚		CompID:4012	Type:Text	Video:1					AutoOrient:NONE	3D:1								Blend:NORMAL				startTime:7.44	inPoint:7.44	outPoint:15.04	Layer	Name:Abidjan		CompID:4012	Type:Text	Video:1					AutoOrient:NONE	3D:1								Blend:NORMAL				startTime:7.4	inPoint:7.4	outPoint:15.04	Layer	Name:Yamoussoukro		CompID:4012	Type:Text	Video:1					AutoOrient:NONE	3D:1								Blend:NORMAL				startTime:7.36	inPoint:7.36	outPoint:15.04	Layer	Name:Zagreb		CompID:4012	Type:Text	Video:1					AutoOrient:NONE	3D:1								Blend:NORMAL				startTime:7.32	inPoint:7.32	outPoint:15.04	Layer	Name:La Habana (Havana)		CompID:4012	Type:Text	Video:1					AutoOrient:NONE	3D:1								Blend:NORMAL				startTime:7.28	inPoint:7.28	outPoint:15.04	Layer	Name:Lefkosia (Nicosia)		CompID:4012	Type:Text	Video:1					AutoOrient:NONE	3D:1								Blend:NORMAL				startTime:7.24	inPoint:7.24	outPoint:15.04	Layer	Name:Praha (Prague)		CompID:4012	Type:Text	Video:1					AutoOrient:NONE	3D:1								Blend:NORMAL				startTime:7.2	inPoint:7.2	outPoint:15.04	Layer	Name:P'yongyang		CompID:4012	Type:Text	Video:1					AutoOrient:NONE	3D:1								Blend:NORMAL				startTime:7.16	inPoint:7.16	outPoint:15.04	Layer	Name:Kinshasa		CompID:4012	Type:Text	Video:1					AutoOrient:NONE	3D:1								Blend:NORMAL				startTime:7.12	inPoint:7.12	outPoint:15.04	Layer	Name:K?benhavn (Copenhagen)		CompID:4012	Type:Text	Video:1					AutoOrient:NONE	3D:1								Blend:NORMAL				startTime:7.08	inPoint:7.08	outPoint:15.04	Layer	Name:Djibouti		CompID:4012	Type:Text	Video:1					AutoOrient:NONE	3D:1								Blend:NORMAL				startTime:7.04	inPoint:7.04	outPoint:15.04	Layer	Name:Roseau		CompID:4012	Type:Text	Video:1					AutoOrient:NONE	3D:1								Blend:NORMAL				startTime:7	inPoint:7	outPoint:15.04	Layer	Name:Santo Domingo		CompID:4012	Type:Text	Video:1					AutoOrient:NONE	3D:1								Blend:NORMAL				startTime:6.96	inPoint:6.96	outPoint:15.04	Layer	Name:Quito		CompID:4012	Type:Text	Video:1					AutoOrient:NONE	3D:1								Blend:NORMAL				startTime:6.92	inPoint:6.92	outPoint:15.04	Layer	Name:Al-Qahirah (Cairo)		CompID:4012	Type:Text	Video:1					AutoOrient:NONE	3D:1								Blend:NORMAL				startTime:6.88	inPoint:6.88	outPoint:15.04	Layer	Name:San Salvador		CompID:4012	Type:Text	Video:1					AutoOrient:NONE	3D:1								Blend:NORMAL				startTime:6.84	inPoint:6.84	outPoint:15.04	Layer	Name:Malabo		CompID:4012	Type:Text	Video:1					AutoOrient:NONE	3D:1								Blend:NORMAL				startTime:6.8	inPoint:6.8	outPoint:15.04	Layer	Name:Asmara		CompID:4012	Type:Text	Video:1					AutoOrient:NONE	3D:1								Blend:NORMAL				startTime:6.76	inPoint:6.76	outPoint:15.04	Layer	Name:Tallinn		CompID:4012	Type:Text	Video:1					AutoOrient:NONE	3D:1								Blend:NORMAL				startTime:6.72	inPoint:6.72	outPoint:15.04	Layer	Name:Addis Ababa		CompID:4012	Type:Text	Video:1					AutoOrient:NONE	3D:1								Blend:NORMAL				startTime:6.68	inPoint:6.68	outPoint:15.04	Layer	Name:Stanley		CompID:4012	Type:Text	Video:1					AutoOrient:NONE	3D:1								Blend:NORMAL				startTime:6.64	inPoint:6.64	outPoint:15.04	Layer	Name:T¢rshavn		CompID:4012	Type:Text	Video:1					AutoOrient:NONE	3D:1								Blend:NORMAL				startTime:6.6	inPoint:6.6	outPoint:15.04	Layer	Name:Suva		CompID:4012	Type:Text	Video:1					AutoOrient:NONE	3D:1								Blend:NORMAL				startTime:6.56	inPoint:6.56	outPoint:15.04	Layer	Name:Helsinki		CompID:4012	Type:Text	Video:1					AutoOrient:NONE	3D:1								Blend:NORMAL				startTime:6.52	inPoint:6.52	outPoint:15.04	Layer	Name:Paris		CompID:4012	Type:Text	Video:1					AutoOrient:NONE	3D:1								Blend:NORMAL				startTime:6.48	inPoint:6.48	outPoint:15.04	Layer	Name:Cayenne		CompID:4012	Type:Text	Video:1					AutoOrient:NONE	3D:1								Blend:NORMAL				startTime:6.44	inPoint:6.44	outPoint:15.04	Layer	Name:Papeete		CompID:4012	Type:Text	Video:1					AutoOrient:NONE	3D:1								Blend:NORMAL				startTime:6.4	inPoint:6.4	outPoint:15.04	Layer	Name:Libreville		CompID:4012	Type:Text	Video:1					AutoOrient:NONE	3D:1								Blend:NORMAL				startTime:6.36	inPoint:6.36	outPoint:15.04	Layer	Name:Banjul		CompID:4012	Type:Text	Video:1					AutoOrient:NONE	3D:1								Blend:NORMAL				startTime:6.32	inPoint:6.32	outPoint:15.04	Layer	Name:Tbilisi		CompID:4012	Type:Text	Video:1					AutoOrient:NONE	3D:1								Blend:NORMAL				startTime:6.28	inPoint:6.28	outPoint:15.04	Layer	Name:Berlin		CompID:4012	Type:Text	Video:1					AutoOrient:NONE	3D:1								Blend:NORMAL				startTime:6.24	inPoint:6.24	outPoint:15.04	Layer	Name:Accra		CompID:4012	Type:Text	Video:1					AutoOrient:NONE	3D:1								Blend:NORMAL				startTime:6.2	inPoint:6.2	outPoint:15.04	Layer	Name:Gibraltar		CompID:4012	Type:Text	Video:1					AutoOrient:NONE	3D:1								Blend:NORMAL				startTime:6.16	inPoint:6.16	outPoint:15.04	Layer	Name:Ath¡nai (Athens)		CompID:4012	Type:Text	Video:1					AutoOrient:NONE	3D:1								Blend:NORMAL				startTime:6.12	inPoint:6.12	outPoint:15.04	Layer	Name:Nuuk (Godth†b)		CompID:4012	Type:Text	Video:1					AutoOrient:NONE	3D:1								Blend:NORMAL				startTime:6.08	inPoint:6.08	outPoint:15.04	Layer	Name:St.George's		CompID:4012	Type:Text	Video:1					AutoOrient:NONE	3D:1								Blend:NORMAL				startTime:6.04	inPoint:6.04	outPoint:15.04	Layer	Name:Basse-Terre		CompID:4012	Type:Text	Video:1					AutoOrient:NONE	3D:1								Blend:NORMAL				startTime:6	inPoint:6	outPoint:15.04	Layer	Name:Hag†t¤a		CompID:4012	Type:Text	Video:1					AutoOrient:NONE	3D:1								Blend:NORMAL				startTime:5.96	inPoint:5.96	outPoint:15.04	Layer	Name:Ciudad de Guatemala (Guatemala City)		CompID:4012	Type:Text	Video:1					AutoOrient:NONE	3D:1								Blend:NORMAL				startTime:5.92	inPoint:5.92	outPoint:15.04	Layer	Name:Conakry		CompID:4012	Type:Text	Video:1					AutoOrient:NONE	3D:1								Blend:NORMAL				startTime:5.88	inPoint:5.88	outPoint:15.04	Layer	Name:Bissau		CompID:4012	Type:Text	Video:1					AutoOrient:NONE	3D:1								Blend:NORMAL				startTime:5.84	inPoint:5.84	outPoint:15.04	Layer	Name:Georgetown		CompID:4012	Type:Text	Video:1					AutoOrient:NONE	3D:1								Blend:NORMAL				startTime:5.8	inPoint:5.8	outPoint:15.04	Layer	Name:Port-au-Prince		CompID:4012	Type:Text	Video:1					AutoOrient:NONE	3D:1								Blend:NORMAL				startTime:5.76	inPoint:5.76	outPoint:15.04	Layer	Name:Vatican City		CompID:4012	Type:Text	Video:1					AutoOrient:NONE	3D:1								Blend:NORMAL				startTime:5.72	inPoint:5.72	outPoint:15.04	Layer	Name:Tegucigalpa		CompID:4012	Type:Text	Video:1					AutoOrient:NONE	3D:1								Blend:NORMAL				startTime:5.68	inPoint:5.68	outPoint:15.04	Layer	Name:Budapest		CompID:4012	Type:Text	Video:1					AutoOrient:NONE	3D:1								Blend:NORMAL				startTime:5.64	inPoint:5.64	outPoint:15.04	Layer	Name:Reykjav¡k		CompID:4012	Type:Text	Video:1					AutoOrient:NONE	3D:1								Blend:NORMAL				startTime:5.6	inPoint:5.6	outPoint:15.04	Layer	Name:Delhi		CompID:4012	Type:Text	Video:1					AutoOrient:NONE	3D:1								Blend:NORMAL				startTime:5.56	inPoint:5.56	outPoint:15.04	Layer	Name:Jakarta		CompID:4012	Type:Text	Video:1					AutoOrient:NONE	3D:1								Blend:NORMAL				startTime:5.52	inPoint:5.52	outPoint:15.04	Layer	Name:Tehran		CompID:4012	Type:Text	Video:1					AutoOrient:NONE	3D:1								Blend:NORMAL				startTime:5.48	inPoint:5.48	outPoint:15.04	Layer	Name:Baghdad		CompID:4012	Type:Text	Video:1					AutoOrient:NONE	3D:1								Blend:NORMAL				startTime:5.44	inPoint:5.44	outPoint:15.04	Layer	Name:Dublin		CompID:4012	Type:Text	Video:1					AutoOrient:NONE	3D:1								Blend:NORMAL				startTime:5.4	inPoint:5.4	outPoint:15.04	Layer	Name:Douglas		CompID:4012	Type:Text	Video:1					AutoOrient:NONE	3D:1								Blend:NORMAL				startTime:5.36	inPoint:5.36	outPoint:15.04	Layer	Name:Jerusalem		CompID:4012	Type:Text	Video:1					AutoOrient:NONE	3D:1								Blend:NORMAL				startTime:5.32	inPoint:5.32	outPoint:15.04	Layer	Name:Roma (Rome)		CompID:4012	Type:Text	Video:1					AutoOrient:NONE	3D:1								Blend:NORMAL				startTime:5.28	inPoint:5.28	outPoint:15.04	Layer	Name:Kingston		CompID:4012	Type:Text	Video:1					AutoOrient:NONE	3D:1								Blend:NORMAL				startTime:5.24	inPoint:5.24	outPoint:15.04	Layer	Name:Tokyo		CompID:4012	Type:Text	Video:1					AutoOrient:NONE	3D:1								Blend:NORMAL				startTime:5.2	inPoint:5.2	outPoint:15.04	Layer	Name:Amman		CompID:4012	Type:Text	Video:1					AutoOrient:NONE	3D:1								Blend:NORMAL				startTime:5.16	inPoint:5.16	outPoint:15.04	Layer	Name:Astana		CompID:4012	Type:Text	Video:1					AutoOrient:NONE	3D:1								Blend:NORMAL				startTime:5.12	inPoint:5.12	outPoint:15.04	Layer	Name:Nairobi		CompID:4012	Type:Text	Video:1					AutoOrient:NONE	3D:1								Blend:NORMAL				startTime:5.08	inPoint:5.08	outPoint:15.04	Layer	Name:Tarawa		CompID:4012	Type:Text	Video:1					AutoOrient:NONE	3D:1								Blend:NORMAL				startTime:5.04	inPoint:5.04	outPoint:15.04	Layer	Name:Al Kuwayt (Kuwait City)		CompID:4012	Type:Text	Video:1					AutoOrient:NONE	3D:1								Blend:NORMAL				startTime:5	inPoint:5	outPoint:15.04	Layer	Name:Bishkek		CompID:4012	Type:Text	Video:1					AutoOrient:NONE	3D:1								Blend:NORMAL				startTime:4.96	inPoint:4.96	outPoint:15.04	Layer	Name:Vientiane		CompID:4012	Type:Text	Video:1					AutoOrient:NONE	3D:1								Blend:NORMAL				startTime:4.92	inPoint:4.92	outPoint:15.04	Layer	Name:Riga		CompID:4012	Type:Text	Video:1					AutoOrient:NONE	3D:1								Blend:NORMAL				startTime:4.88	inPoint:4.88	outPoint:15.04	Layer	Name:Bayrut (Beirut)		CompID:4012	Type:Text	Video:1					AutoOrient:NONE	3D:1								Blend:NORMAL				startTime:4.84	inPoint:4.84	outPoint:15.04	Layer	Name:Maseru		CompID:4012	Type:Text	Video:1					AutoOrient:NONE	3D:1								Blend:NORMAL				startTime:4.8	inPoint:4.8	outPoint:15.04	Layer	Name:Monrovia		CompID:4012	Type:Text	Video:1					AutoOrient:NONE	3D:1								Blend:NORMAL				startTime:4.76	inPoint:4.76	outPoint:15.04	Layer	Name:Tarabulus (Tripoli)		CompID:4012	Type:Text	Video:1					AutoOrient:NONE	3D:1								Blend:NORMAL				startTime:4.72	inPoint:4.72	outPoint:15.04	Layer	Name:Vaduz		CompID:4012	Type:Text	Video:1					AutoOrient:NONE	3D:1								Blend:NORMAL				startTime:4.68	inPoint:4.68	outPoint:15.04	Layer	Name:Vilnius		CompID:4012	Type:Text	Video:1					AutoOrient:NONE	3D:1								Blend:NORMAL				startTime:4.64	inPoint:4.64	outPoint:15.04	Layer	Name:Luxembourg		CompID:4012	Type:Text	Video:1					AutoOrient:NONE	3D:1								Blend:NORMAL				startTime:4.6	inPoint:4.6	outPoint:15.04	Layer	Name:Antananarivo		CompID:4012	Type:Text	Video:1					AutoOrient:NONE	3D:1								Blend:NORMAL				startTime:4.56	inPoint:4.56	outPoint:15.04	Layer	Name:Lilongwe		CompID:4012	Type:Text	Video:1					AutoOrient:NONE	3D:1								Blend:NORMAL				startTime:4.52	inPoint:4.52	outPoint:15.04	Layer	Name:Kuala Lumpur		CompID:4012	Type:Text	Video:1					AutoOrient:NONE	3D:1								Blend:NORMAL				startTime:4.48	inPoint:4.48	outPoint:15.04	Layer	Name:Male		CompID:4012	Type:Text	Video:1					AutoOrient:NONE	3D:1								Blend:NORMAL				startTime:4.44	inPoint:4.44	outPoint:15.04	Layer	Name:Bamako		CompID:4012	Type:Text	Video:1					AutoOrient:NONE	3D:1								Blend:NORMAL				startTime:4.4	inPoint:4.4	outPoint:15.04	Layer	Name:Valletta		CompID:4012	Type:Text	Video:1					AutoOrient:NONE	3D:1								Blend:NORMAL				startTime:4.36	inPoint:4.36	outPoint:15.04	Layer	Name:Majuro		CompID:4012	Type:Text	Video:1					AutoOrient:NONE	3D:1								Blend:NORMAL				startTime:4.32	inPoint:4.32	outPoint:15.04	Layer	Name:Fort-de-France		CompID:4012	Type:Text	Video:1					AutoOrient:NONE	3D:1								Blend:NORMAL				startTime:4.28	inPoint:4.28	outPoint:15.04	Layer	Name:Nouakchott		CompID:4012	Type:Text	Video:1					AutoOrient:NONE	3D:1								Blend:NORMAL				startTime:4.24	inPoint:4.24	outPoint:15.04	Layer	Name:Port Louis		CompID:4012	Type:Text	Video:1					AutoOrient:NONE	3D:1								Blend:NORMAL				startTime:4.2	inPoint:4.2	outPoint:15.04	Layer	Name:Mamoudzou		CompID:4012	Type:Text	Video:1					AutoOrient:NONE	3D:1								Blend:NORMAL				startTime:4.16	inPoint:4.16	outPoint:15.04	Layer	Name:Ciudad de M‚xico (Mexico City)		CompID:4012	Type:Text	Video:1					AutoOrient:NONE	3D:1								Blend:NORMAL				startTime:4.12	inPoint:4.12	outPoint:15.04	Layer	Name:Palikir		CompID:4012	Type:Text	Video:1					AutoOrient:NONE	3D:1								Blend:NORMAL				startTime:4.08	inPoint:4.08	outPoint:15.04	Layer	Name:Monaco		CompID:4012	Type:Text	Video:1					AutoOrient:NONE	3D:1								Blend:NORMAL				startTime:4.04	inPoint:4.04	outPoint:15.04	Layer	Name:Ulaanbaatar		CompID:4012	Type:Text	Video:1					AutoOrient:NONE	3D:1								Blend:NORMAL				startTime:4	inPoint:4	outPoint:15.04	Layer	Name:Podgorica		CompID:4012	Type:Text	Video:1					AutoOrient:NONE	3D:1								Blend:NORMAL				startTime:3.96	inPoint:3.96	outPoint:15.04	Layer	Name:Brades Estate		CompID:4012	Type:Text	Video:1					AutoOrient:NONE	3D:1								Blend:NORMAL				startTime:3.92	inPoint:3.92	outPoint:15.04	Layer	Name:Plymouth		CompID:4012	Type:Text	Video:1					AutoOrient:NONE	3D:1								Blend:NORMAL				startTime:3.88	inPoint:3.88	outPoint:15.04	Layer	Name:Rabat		CompID:4012	Type:Text	Video:1					AutoOrient:NONE	3D:1								Blend:NORMAL				startTime:3.84	inPoint:3.84	outPoint:15.04	Layer	Name:Maputo		CompID:4012	Type:Text	Video:1					AutoOrient:NONE	3D:1								Blend:NORMAL				startTime:3.8	inPoint:3.8	outPoint:15.04	Layer	Name:Nay Pyi Taw		CompID:4012	Type:Text	Video:1					AutoOrient:NONE	3D:1								Blend:NORMAL				startTime:3.76	inPoint:3.76	outPoint:15.04	Layer	Name:Windhoek		CompID:4012	Type:Text	Video:1					AutoOrient:NONE	3D:1								Blend:NORMAL				startTime:3.72	inPoint:3.72	outPoint:15.04	Layer	Name:Nauru		CompID:4012	Type:Text	Video:1					AutoOrient:NONE	3D:1								Blend:NORMAL				startTime:3.68	inPoint:3.68	outPoint:15.04	Layer	Name:Kathmandu		CompID:4012	Type:Text	Video:1					AutoOrient:NONE	3D:1								Blend:NORMAL				startTime:3.64	inPoint:3.64	outPoint:15.04	Layer	Name:Amsterdam		CompID:4012	Type:Text	Video:1					AutoOrient:NONE	3D:1								Blend:NORMAL				startTime:3.6	inPoint:3.6	outPoint:15.04	Layer	Name:s-Gravenhage (The Hague)		CompID:4012	Type:Text	Video:1					AutoOrient:NONE	3D:1								Blend:NORMAL				startTime:3.56	inPoint:3.56	outPoint:15.04	Layer	Name:Willemstad		CompID:4012	Type:Text	Video:1					AutoOrient:NONE	3D:1								Blend:NORMAL				startTime:3.52	inPoint:3.52	outPoint:15.04	Layer	Name:Noum‚a		CompID:4012	Type:Text	Video:1					AutoOrient:NONE	3D:1								Blend:NORMAL				startTime:3.48	inPoint:3.48	outPoint:15.04	Layer	Name:Wellington		CompID:4012	Type:Text	Video:1					AutoOrient:NONE	3D:1								Blend:NORMAL				startTime:3.44	inPoint:3.44	outPoint:15.04	Layer	Name:Managua		CompID:4012	Type:Text	Video:1					AutoOrient:NONE	3D:1								Blend:NORMAL				startTime:3.4	inPoint:3.4	outPoint:15.04	Layer	Name:Niamey		CompID:4012	Type:Text	Video:1					AutoOrient:NONE	3D:1								Blend:NORMAL				startTime:3.36	inPoint:3.36	outPoint:15.04	Layer	Name:Abuja		CompID:4012	Type:Text	Video:1					AutoOrient:NONE	3D:1								Blend:NORMAL				startTime:3.32	inPoint:3.32	outPoint:15.04	Layer	Name:Alofi		CompID:4012	Type:Text	Video:1					AutoOrient:NONE	3D:1								Blend:NORMAL				startTime:3.28	inPoint:3.28	outPoint:15.04	Layer	Name:Saipan		CompID:4012	Type:Text	Video:1					AutoOrient:NONE	3D:1								Blend:NORMAL				startTime:3.24	inPoint:3.24	outPoint:15.04	Layer	Name:Oslo		CompID:4012	Type:Text	Video:1					AutoOrient:NONE	3D:1								Blend:NORMAL				startTime:3.2	inPoint:3.2	outPoint:15.04	Layer	Name:Ramallah		CompID:4012	Type:Text	Video:1					AutoOrient:NONE	3D:1								Blend:NORMAL				startTime:3.16	inPoint:3.16	outPoint:15.04	Layer	Name:Masqat (Muscat)		CompID:4012	Type:Text	Video:1					AutoOrient:NONE	3D:1								Blend:NORMAL				startTime:3.12	inPoint:3.12	outPoint:15.04	Layer	Name:Islamabad		CompID:4012	Type:Text	Video:1					AutoOrient:NONE	3D:1								Blend:NORMAL				startTime:3.08	inPoint:3.08	outPoint:15.04	Layer	Name:Melekeok		CompID:4012	Type:Text	Video:1					AutoOrient:NONE	3D:1								Blend:NORMAL				startTime:3.04	inPoint:3.04	outPoint:15.04	Layer	Name:Ciudad de Panam  (Panama City)		CompID:4012	Type:Text	Video:1					AutoOrient:NONE	3D:1								Blend:NORMAL				startTime:3	inPoint:3	outPoint:15.04	Layer	Name:Port Moresby		CompID:4012	Type:Text	Video:1					AutoOrient:NONE	3D:1								Blend:NORMAL				startTime:2.96	inPoint:2.96	outPoint:15.04	Layer	Name:Asunci¢n		CompID:4012	Type:Text	Video:1					AutoOrient:NONE	3D:1								Blend:NORMAL				startTime:2.92	inPoint:2.92	outPoint:15.04	Layer	Name:Lima		CompID:4012	Type:Text	Video:1					AutoOrient:NONE	3D:1								Blend:NORMAL				startTime:2.88	inPoint:2.88	outPoint:15.04	Layer	Name:Manila		CompID:4012	Type:Text	Video:1					AutoOrient:NONE	3D:1								Blend:NORMAL				startTime:2.84	inPoint:2.84	outPoint:15.04	Layer	Name:Adamstown		CompID:4012	Type:Text	Video:1					AutoOrient:NONE	3D:1								Blend:NORMAL				startTime:2.8	inPoint:2.8	outPoint:15.04	Layer	Name:Warszawa (Warsaw)		CompID:4012	Type:Text	Video:1					AutoOrient:NONE	3D:1								Blend:NORMAL				startTime:2.76	inPoint:2.76	outPoint:15.04	Layer	Name:Lisboa (Lisbon)		CompID:4012	Type:Text	Video:1					AutoOrient:NONE	3D:1								Blend:NORMAL				startTime:2.72	inPoint:2.72	outPoint:15.04	Layer	Name:San Juan		CompID:4012	Type:Text	Video:1					AutoOrient:NONE	3D:1								Blend:NORMAL				startTime:2.68	inPoint:2.68	outPoint:15.04	Layer	Name:Ad-Dawhah (Doha)		CompID:4012	Type:Text	Video:1					AutoOrient:NONE	3D:1								Blend:NORMAL				startTime:2.64	inPoint:2.64	outPoint:15.04	Layer	Name:Seoul		CompID:4012	Type:Text	Video:1					AutoOrient:NONE	3D:1								Blend:NORMAL				startTime:2.6	inPoint:2.6	outPoint:15.04	Layer	Name:Chi?in?u		CompID:4012	Type:Text	Video:1					AutoOrient:NONE	3D:1								Blend:NORMAL				startTime:2.56	inPoint:2.56	outPoint:15.04	Layer	Name:Saint-Denis		CompID:4012	Type:Text	Video:1					AutoOrient:NONE	3D:1								Blend:NORMAL				startTime:2.52	inPoint:2.52	outPoint:15.04	Layer	Name:Bucuresti (Bucharest)		CompID:4012	Type:Text	Video:1					AutoOrient:NONE	3D:1								Blend:NORMAL				startTime:2.48	inPoint:2.48	outPoint:15.04	Layer	Name:Moskva (Moscow)		CompID:4012	Type:Text	Video:1					AutoOrient:NONE	3D:1								Blend:NORMAL				startTime:2.44	inPoint:2.44	outPoint:15.04	Layer	Name:Kigali		CompID:4012	Type:Text	Video:1					AutoOrient:NONE	3D:1								Blend:NORMAL				startTime:2.4	inPoint:2.4	outPoint:15.04	Layer	Name:Jamestown		CompID:4012	Type:Text	Video:1					AutoOrient:NONE	3D:1								Blend:NORMAL				startTime:2.36	inPoint:2.36	outPoint:15.04	Layer	Name:Basseterre		CompID:4012	Type:Text	Video:1					AutoOrient:NONE	3D:1								Blend:NORMAL				startTime:2.32	inPoint:2.32	outPoint:15.04	Layer	Name:Castries		CompID:4012	Type:Text	Video:1					AutoOrient:NONE	3D:1								Blend:NORMAL				startTime:2.28	inPoint:2.28	outPoint:15.04	Layer	Name:Saint-Pierre		CompID:4012	Type:Text	Video:1					AutoOrient:NONE	3D:1								Blend:NORMAL				startTime:2.24	inPoint:2.24	outPoint:15.04	Layer	Name:Kingstown		CompID:4012	Type:Text	Video:1					AutoOrient:NONE	3D:1								Blend:NORMAL				startTime:2.2	inPoint:2.2	outPoint:15.04	Layer	Name:Apia		CompID:4012	Type:Text	Video:1					AutoOrient:NONE	3D:1								Blend:NORMAL				startTime:2.16	inPoint:2.16	outPoint:15.04	Layer	Name:San Marino		CompID:4012	Type:Text	Video:1					AutoOrient:NONE	3D:1								Blend:NORMAL				startTime:2.12	inPoint:2.12	outPoint:15.04	Layer	Name:S?o Tom‚		CompID:4012	Type:Text	Video:1					AutoOrient:NONE	3D:1								Blend:NORMAL				startTime:2.08	inPoint:2.08	outPoint:15.04	Layer	Name:Ar-Riyadh (Riyadh)		CompID:4012	Type:Text	Video:1					AutoOrient:NONE	3D:1								Blend:NORMAL				startTime:2.04	inPoint:2.04	outPoint:15.04	Layer	Name:Dakar		CompID:4012	Type:Text	Video:1					AutoOrient:NONE	3D:1								Blend:NORMAL				startTime:2	inPoint:2	outPoint:15.04	Layer	Name:Beograd (Belgrade)		CompID:4012	Type:Text	Video:1					AutoOrient:NONE	3D:1								Blend:NORMAL				startTime:1.96	inPoint:1.96	outPoint:15.04	Layer	Name:Victoria		CompID:4012	Type:Text	Video:1					AutoOrient:NONE	3D:1								Blend:NORMAL				startTime:1.92	inPoint:1.92	outPoint:15.04	Layer	Name:Freetown		CompID:4012	Type:Text	Video:1					AutoOrient:NONE	3D:1								Blend:NORMAL				startTime:1.88	inPoint:1.88	outPoint:15.04	Layer	Name:Singapore		CompID:4012	Type:Text	Video:1					AutoOrient:NONE	3D:1								Blend:NORMAL				startTime:1.84	inPoint:1.84	outPoint:15.04	Layer	Name:Bratislava		CompID:4012	Type:Text	Video:1					AutoOrient:NONE	3D:1								Blend:NORMAL				startTime:1.8	inPoint:1.8	outPoint:15.04	Layer	Name:Ljubljana		CompID:4012	Type:Text	Video:1					AutoOrient:NONE	3D:1								Blend:NORMAL				startTime:1.76	inPoint:1.76	outPoint:15.04	Layer	Name:Honiara		CompID:4012	Type:Text	Video:1					AutoOrient:NONE	3D:1								Blend:NORMAL				startTime:1.72	inPoint:1.72	outPoint:15.04	Layer	Name:Muqdisho (Mogadishu)		CompID:4012	Type:Text	Video:1					AutoOrient:NONE	3D:1								Blend:NORMAL				startTime:1.68	inPoint:1.68	outPoint:15.04	Layer	Name:Bloemfontein		CompID:4012	Type:Text	Video:1					AutoOrient:NONE	3D:1								Blend:NORMAL				startTime:1.64	inPoint:1.64	outPoint:15.04	Layer	Name:Cape Town		CompID:4012	Type:Text	Video:1					AutoOrient:NONE	3D:1								Blend:NORMAL				startTime:1.6	inPoint:1.6	outPoint:15.04	Layer	Name:Pretoria		CompID:4012	Type:Text	Video:1					AutoOrient:NONE	3D:1								Blend:NORMAL				startTime:1.56	inPoint:1.56	outPoint:15.04	Layer	Name:Juba		CompID:4012	Type:Text	Video:1					AutoOrient:NONE	3D:1								Blend:NORMAL				startTime:1.52	inPoint:1.52	outPoint:15.04	Layer	Name:Madrid		CompID:4012	Type:Text	Video:1					AutoOrient:NONE	3D:1								Blend:NORMAL				startTime:1.48	inPoint:1.48	outPoint:15.04	Layer	Name:Colombo		CompID:4012	Type:Text	Video:1					AutoOrient:NONE	3D:1								Blend:NORMAL				startTime:1.44	inPoint:1.44	outPoint:15.04	Layer	Name:Sri Jayewardenepura Kotte		CompID:4012	Type:Text	Video:1					AutoOrient:NONE	3D:1								Blend:NORMAL				startTime:1.4	inPoint:1.4	outPoint:15.04	Layer	Name:Al-Khartum (Khartoum)		CompID:4012	Type:Text	Video:1					AutoOrient:NONE	3D:1								Blend:NORMAL				startTime:1.36	inPoint:1.36	outPoint:15.04	Layer	Name:Paramaribo		CompID:4012	Type:Text	Video:1					AutoOrient:NONE	3D:1								Blend:NORMAL				startTime:1.32	inPoint:1.32	outPoint:15.04	Layer	Name:Mbabane		CompID:4012	Type:Text	Video:1					AutoOrient:NONE	3D:1								Blend:NORMAL				startTime:1.28	inPoint:1.28	outPoint:15.04	Layer	Name:Stockholm		CompID:4012	Type:Text	Video:1					AutoOrient:NONE	3D:1								Blend:NORMAL				startTime:1.24	inPoint:1.24	outPoint:15.04	Layer	Name:Bern		CompID:4012	Type:Text	Video:1					AutoOrient:NONE	3D:1								Blend:NORMAL				startTime:1.2	inPoint:1.2	outPoint:15.04	Layer	Name:Dimashq (Damascus)		CompID:4012	Type:Text	Video:1					AutoOrient:NONE	3D:1								Blend:NORMAL				startTime:1.16	inPoint:1.16	outPoint:15.04	Layer	Name:Dushanbe		CompID:4012	Type:Text	Video:1					AutoOrient:NONE	3D:1								Blend:NORMAL				startTime:1.12	inPoint:1.12	outPoint:15.04	Layer	Name:Skopje		CompID:4012	Type:Text	Video:1					AutoOrient:NONE	3D:1								Blend:NORMAL				startTime:1.08	inPoint:1.08	outPoint:15.04	Layer	Name:Krung Thep (Bangkok)		CompID:4012	Type:Text	Video:1					AutoOrient:NONE	3D:1								Blend:NORMAL				startTime:1.04	inPoint:1.04	outPoint:15.04	Layer	Name:Dili		CompID:4012	Type:Text	Video:1					AutoOrient:NONE	3D:1								Blend:NORMAL				startTime:1	inPoint:1	outPoint:15.04	Layer	Name:Lom‚		CompID:4012	Type:Text	Video:1					AutoOrient:NONE	3D:1								Blend:NORMAL				startTime:0.96	inPoint:0.96	outPoint:15.04	Layer	Name:Nuku'alofa		CompID:4012	Type:Text	Video:1					AutoOrient:NONE	3D:1								Blend:NORMAL				startTime:0.92	inPoint:0.92	outPoint:15.04	Layer	Name:Port of Spain		CompID:4012	Type:Text	Video:1					AutoOrient:NONE	3D:1								Blend:NORMAL				startTime:0.88	inPoint:0.88	outPoint:15.04	Layer	Name:Tunis		CompID:4012	Type:Text	Video:1					AutoOrient:NONE	3D:1								Blend:NORMAL				startTime:0.84	inPoint:0.84	outPoint:15.04	Layer	Name:Ankara		CompID:4012	Type:Text	Video:1					AutoOrient:NONE	3D:1								Blend:NORMAL				startTime:0.8	inPoint:0.8	outPoint:15.04	Layer	Name:Ashgabat		CompID:4012	Type:Text	Video:1					AutoOrient:NONE	3D:1								Blend:NORMAL				startTime:0.76	inPoint:0.76	outPoint:15.04	Layer	Name:Cockburn Town		CompID:4012	Type:Text	Video:1					AutoOrient:NONE	3D:1								Blend:NORMAL				startTime:0.72	inPoint:0.72	outPoint:15.04	Layer	Name:Funafuti		CompID:4012	Type:Text	Video:1					AutoOrient:NONE	3D:1								Blend:NORMAL				startTime:0.68	inPoint:0.68	outPoint:15.04	Layer	Name:Kampala		CompID:4012	Type:Text	Video:1					AutoOrient:NONE	3D:1								Blend:NORMAL				startTime:0.64	inPoint:0.64	outPoint:15.04	Layer	Name:Kyiv (Kiev)		CompID:4012	Type:Text	Video:1					AutoOrient:NONE	3D:1								Blend:NORMAL				startTime:0.6	inPoint:0.6	outPoint:15.04	Layer	Name:Abu Zaby (Abu Dhabi)		CompID:4012	Type:Text	Video:1					AutoOrient:NONE	3D:1								Blend:NORMAL				startTime:0.56	inPoint:0.56	outPoint:15.04	Layer	Name:London		CompID:4012	Type:Text	Video:1					AutoOrient:NONE	3D:1								Blend:NORMAL				startTime:0.52	inPoint:0.52	outPoint:15.04	Layer	Name:Dodoma		CompID:4012	Type:Text	Video:1					AutoOrient:NONE	3D:1								Blend:NORMAL				startTime:0.48	inPoint:0.48	outPoint:15.04	Layer	Name:Washington%c% D.C.		CompID:4012	Type:Text	Video:1					AutoOrient:NONE	3D:1								Blend:NORMAL				startTime:0.44	inPoint:0.44	outPoint:15.04	Layer	Name:Charlotte Amalie		CompID:4012	Type:Text	Video:1					AutoOrient:NONE	3D:1								Blend:NORMAL				startTime:0.4	inPoint:0.4	outPoint:15.04	Layer	Name:Montevideo		CompID:4012	Type:Text	Video:1					AutoOrient:NONE	3D:1								Blend:NORMAL				startTime:0.36	inPoint:0.36	outPoint:15.04	Layer	Name:Tashkent		CompID:4012	Type:Text	Video:1					AutoOrient:NONE	3D:1								Blend:NORMAL				startTime:0.32	inPoint:0.32	outPoint:15.04	Layer	Name:Port Vila		CompID:4012	Type:Text	Video:1					AutoOrient:NONE	3D:1								Blend:NORMAL				startTime:0.28	inPoint:0.28	outPoint:15.04	Layer	Name:Caracas		CompID:4012	Type:Text	Video:1					AutoOrient:NONE	3D:1								Blend:NORMAL				startTime:0.24	inPoint:0.24	outPoint:15.04	Layer	Name:H… Noi		CompID:4012	Type:Text	Video:1					AutoOrient:NONE	3D:1								Blend:NORMAL				startTime:0.2	inPoint:0.2	outPoint:15.04	Layer	Name:Matu-Utu		CompID:4012	Type:Text	Video:1					AutoOrient:NONE	3D:1								Blend:NORMAL				startTime:0.16	inPoint:0.16	outPoint:15.04	Layer	Name:El Aai£n		CompID:4012	Type:Text	Video:1					AutoOrient:NONE	3D:1								Blend:NORMAL				startTime:0.12	inPoint:0.12	outPoint:15.04	Layer	Name:Sana'a'		CompID:4012	Type:Text	Video:1					AutoOrient:NONE	3D:1								Blend:NORMAL				startTime:0.08	inPoint:0.08	outPoint:15.04	Layer	Name:Lusaka		CompID:4012	Type:Text	Video:1					AutoOrient:NONE	3D:1								Blend:NORMAL				startTime:0.04	inPoint:0.04	outPoint:15.04	Layer	Name:Harare		CompID:4012	Type:Text	Video:1					AutoOrient:NONE	3D:1								Blend:NORMAL				startTime:0	inPoint:0	outPoint:15.04	Layer	Name:new Basic Marker Shape		CompID:4262	Type:Shape	Video:1					AutoOrient:NONE	3D:1								Blend:NORMAL				startTime:0	inPoint:0	outPoint:29.84	Layer	Name:new Basic Marker Shape 2		CompID:4262	Type:Shape	Video:1					AutoOrient:NONE	3D:1								Blend:NORMAL				startTime:0.4	inPoint:0.4	outPoint:30.24	Layer	Name:Kabul	ID:4262	CompID:4514	Type:Comp	Video:1					AutoOrient:NONE	3D:1								Blend:NORMAL		Collapse:1	UsedIn:1	startTime:9.44	inPoint:9.44	outPoint:15.04	Layer	Name:Tiran‰ (Tirana)	ID:4262	CompID:4514	Type:Comp	Video:1					AutoOrient:NONE	3D:1								Blend:NORMAL		Collapse:1	UsedIn:1	startTime:9.4	inPoint:9.4	outPoint:15.04	Layer	Name:El Djaza‹r  (Algiers)	ID:4262	CompID:4514	Type:Comp	Video:1					AutoOrient:NONE	3D:1								Blend:NORMAL		Collapse:1	UsedIn:1	startTime:9.36	inPoint:9.36	outPoint:15.04	Layer	Name:Pago Pago	ID:4262	CompID:4514	Type:Comp	Video:1					AutoOrient:NONE	3D:1								Blend:NORMAL		Collapse:1	UsedIn:1	startTime:9.32	inPoint:9.32	outPoint:15.04	Layer	Name:Andorra la Vella	ID:4262	CompID:4514	Type:Comp	Video:1					AutoOrient:NONE	3D:1								Blend:NORMAL		Collapse:1	UsedIn:1	startTime:9.28	inPoint:9.28	outPoint:15.04	Layer	Name:Luanda	ID:4262	CompID:4514	Type:Comp	Video:1					AutoOrient:NONE	3D:1								Blend:NORMAL		Collapse:1	UsedIn:1	startTime:9.24	inPoint:9.24	outPoint:15.04	Layer	Name:The Valley	ID:4262	CompID:4514	Type:Comp	Video:1					AutoOrient:NONE	3D:1								Blend:NORMAL		Collapse:1	UsedIn:1	startTime:9.2	inPoint:9.2	outPoint:15.04	Layer	Name:St. John's	ID:4262	CompID:4514	Type:Comp	Video:1					AutoOrient:NONE	3D:1								Blend:NORMAL		Collapse:1	UsedIn:1	startTime:9.16	inPoint:9.16	outPoint:15.04	Layer	Name:Buenos Aires	ID:4262	CompID:4514	Type:Comp	Video:1					AutoOrient:NONE	3D:1								Blend:NORMAL		Collapse:1	UsedIn:1	startTime:9.12	inPoint:9.12	outPoint:15.04	Layer	Name:Yerevan	ID:4262	CompID:4514	Type:Comp	Video:1					AutoOrient:NONE	3D:1								Blend:NORMAL		Collapse:1	UsedIn:1	startTime:9.08	inPoint:9.08	outPoint:15.04	Layer	Name:Oranjestad	ID:4262	CompID:4514	Type:Comp	Video:1					AutoOrient:NONE	3D:1								Blend:NORMAL		Collapse:1	UsedIn:1	startTime:9.04	inPoint:9.04	outPoint:15.04	Layer	Name:Canberra	ID:4262	CompID:4514	Type:Comp	Video:1					AutoOrient:NONE	3D:1								Blend:NORMAL		Collapse:1	UsedIn:1	startTime:9	inPoint:9	outPoint:15.04	Layer	Name:Wien (Vienna)	ID:4262	CompID:4514	Type:Comp	Video:1					AutoOrient:NONE	3D:1								Blend:NORMAL		Collapse:1	UsedIn:1	startTime:8.96	inPoint:8.96	outPoint:15.04	Layer	Name:Baku	ID:4262	CompID:4514	Type:Comp	Video:1					AutoOrient:NONE	3D:1								Blend:NORMAL		Collapse:1	UsedIn:1	startTime:8.92	inPoint:8.92	outPoint:15.04	Layer	Name:Nassau	ID:4262	CompID:4514	Type:Comp	Video:1					AutoOrient:NONE	3D:1								Blend:NORMAL		Collapse:1	UsedIn:1	startTime:8.88	inPoint:8.88	outPoint:15.04	Layer	Name:Al-Manamah (Manama)	ID:4262	CompID:4514	Type:Comp	Video:1					AutoOrient:NONE	3D:1								Blend:NORMAL		Collapse:1	UsedIn:1	startTime:8.84	inPoint:8.84	outPoint:15.04	Layer	Name:Dhaka	ID:4262	CompID:4514	Type:Comp	Video:1					AutoOrient:NONE	3D:1								Blend:NORMAL		Collapse:1	UsedIn:1	startTime:8.8	inPoint:8.8	outPoint:15.04	Layer	Name:Bridgetown	ID:4262	CompID:4514	Type:Comp	Video:1					AutoOrient:NONE	3D:1								Blend:NORMAL		Collapse:1	UsedIn:1	startTime:8.76	inPoint:8.76	outPoint:15.04	Layer	Name:Minsk	ID:4262	CompID:4514	Type:Comp	Video:1					AutoOrient:NONE	3D:1								Blend:NORMAL		Collapse:1	UsedIn:1	startTime:8.72	inPoint:8.72	outPoint:15.04	Layer	Name:Belmopan	ID:4262	CompID:4514	Type:Comp	Video:1					AutoOrient:NONE	3D:1								Blend:NORMAL		Collapse:1	UsedIn:1	startTime:8.68	inPoint:8.68	outPoint:15.04	Layer	Name:Cotonou	ID:4262	CompID:4514	Type:Comp	Video:1					AutoOrient:NONE	3D:1								Blend:NORMAL		Collapse:1	UsedIn:1	startTime:8.64	inPoint:8.64	outPoint:15.04	Layer	Name:Porto-Novo	ID:4262	CompID:4514	Type:Comp	Video:1					AutoOrient:NONE	3D:1								Blend:NORMAL		Collapse:1	UsedIn:1	startTime:8.6	inPoint:8.6	outPoint:15.04	Layer	Name:Hamilton	ID:4262	CompID:4514	Type:Comp	Video:1					AutoOrient:NONE	3D:1								Blend:NORMAL		Collapse:1	UsedIn:1	startTime:8.56	inPoint:8.56	outPoint:15.04	Layer	Name:Thimphu	ID:4262	CompID:4514	Type:Comp	Video:1					AutoOrient:NONE	3D:1								Blend:NORMAL		Collapse:1	UsedIn:1	startTime:8.52	inPoint:8.52	outPoint:15.04	Layer	Name:La Paz	ID:4262	CompID:4514	Type:Comp	Video:1					AutoOrient:NONE	3D:1								Blend:NORMAL		Collapse:1	UsedIn:1	startTime:8.48	inPoint:8.48	outPoint:15.04	Layer	Name:Sucre	ID:4262	CompID:4514	Type:Comp	Video:1					AutoOrient:NONE	3D:1								Blend:NORMAL		Collapse:1	UsedIn:1	startTime:8.44	inPoint:8.44	outPoint:15.04	Layer	Name:Sarajevo	ID:4262	CompID:4514	Type:Comp	Video:1					AutoOrient:NONE	3D:1								Blend:NORMAL		Collapse:1	UsedIn:1	startTime:8.4	inPoint:8.4	outPoint:15.04	Layer	Name:Gaborone	ID:4262	CompID:4514	Type:Comp	Video:1					AutoOrient:NONE	3D:1								Blend:NORMAL		Collapse:1	UsedIn:1	startTime:8.36	inPoint:8.36	outPoint:15.04	Layer	Name:Bras¡lia	ID:4262	CompID:4514	Type:Comp	Video:1					AutoOrient:NONE	3D:1								Blend:NORMAL		Collapse:1	UsedIn:1	startTime:8.32	inPoint:8.32	outPoint:15.04	Layer	Name:Road Town	ID:4262	CompID:4514	Type:Comp	Video:1					AutoOrient:NONE	3D:1								Blend:NORMAL		Collapse:1	UsedIn:1	startTime:8.28	inPoint:8.28	outPoint:15.04	Layer	Name:Bandar Seri Begawan	ID:4262	CompID:4514	Type:Comp	Video:1					AutoOrient:NONE	3D:1								Blend:NORMAL		Collapse:1	UsedIn:1	startTime:8.24	inPoint:8.24	outPoint:15.04	Layer	Name:Sofia	ID:4262	CompID:4514	Type:Comp	Video:1					AutoOrient:NONE	3D:1								Blend:NORMAL		Collapse:1	UsedIn:1	startTime:8.2	inPoint:8.2	outPoint:15.04	Layer	Name:Ouagadougou	ID:4262	CompID:4514	Type:Comp	Video:1					AutoOrient:NONE	3D:1								Blend:NORMAL		Collapse:1	UsedIn:1	startTime:8.16	inPoint:8.16	outPoint:15.04	Layer	Name:Bujumbura	ID:4262	CompID:4514	Type:Comp	Video:1					AutoOrient:NONE	3D:1								Blend:NORMAL		Collapse:1	UsedIn:1	startTime:8.12	inPoint:8.12	outPoint:15.04	Layer	Name:Phnum P‚nh (Phnom Penh)	ID:4262	CompID:4514	Type:Comp	Video:1					AutoOrient:NONE	3D:1								Blend:NORMAL		Collapse:1	UsedIn:1	startTime:8.08	inPoint:8.08	outPoint:15.04	Layer	Name:Yaound‚	ID:4262	CompID:4514	Type:Comp	Video:1					AutoOrient:NONE	3D:1								Blend:NORMAL		Collapse:1	UsedIn:1	startTime:8.04	inPoint:8.04	outPoint:15.04	Layer	Name:Ottawa-Gatineau	ID:4262	CompID:4514	Type:Comp	Video:1					AutoOrient:NONE	3D:1								Blend:NORMAL		Collapse:1	UsedIn:1	startTime:8	inPoint:8	outPoint:15.04	Layer	Name:Praia	ID:4262	CompID:4514	Type:Comp	Video:1					AutoOrient:NONE	3D:1								Blend:NORMAL		Collapse:1	UsedIn:1	startTime:7.96	inPoint:7.96	outPoint:15.04	Layer	Name:George Town	ID:4262	CompID:4514	Type:Comp	Video:1					AutoOrient:NONE	3D:1								Blend:NORMAL		Collapse:1	UsedIn:1	startTime:7.92	inPoint:7.92	outPoint:15.04	Layer	Name:Bangui	ID:4262	CompID:4514	Type:Comp	Video:1					AutoOrient:NONE	3D:1								Blend:NORMAL		Collapse:1	UsedIn:1	startTime:7.88	inPoint:7.88	outPoint:15.04	Layer	Name:N'Djam‚na	ID:4262	CompID:4514	Type:Comp	Video:1					AutoOrient:NONE	3D:1								Blend:NORMAL		Collapse:1	UsedIn:1	startTime:7.84	inPoint:7.84	outPoint:15.04	Layer	Name:St. Helier	ID:4262	CompID:4514	Type:Comp	Video:1					AutoOrient:NONE	3D:1								Blend:NORMAL		Collapse:1	UsedIn:1	startTime:7.8	inPoint:7.8	outPoint:15.04	Layer	Name:Santiago	ID:4262	CompID:4514	Type:Comp	Video:1					AutoOrient:NONE	3D:1								Blend:NORMAL		Collapse:1	UsedIn:1	startTime:7.76	inPoint:7.76	outPoint:15.04	Layer	Name:Beijing	ID:4262	CompID:4514	Type:Comp	Video:1					AutoOrient:NONE	3D:1								Blend:NORMAL		Collapse:1	UsedIn:1	startTime:7.72	inPoint:7.72	outPoint:15.04	Layer	Name:Hong Kong	ID:4262	CompID:4514	Type:Comp	Video:1					AutoOrient:NONE	3D:1								Blend:NORMAL		Collapse:1	UsedIn:1	startTime:7.68	inPoint:7.68	outPoint:15.04	Layer	Name:Macao	ID:4262	CompID:4514	Type:Comp	Video:1					AutoOrient:NONE	3D:1								Blend:NORMAL		Collapse:1	UsedIn:1	startTime:7.64	inPoint:7.64	outPoint:15.04	Layer	Name:Bogot 	ID:4262	CompID:4514	Type:Comp	Video:1					AutoOrient:NONE	3D:1								Blend:NORMAL		Collapse:1	UsedIn:1	startTime:7.6	inPoint:7.6	outPoint:15.04	Layer	Name:Moroni	ID:4262	CompID:4514	Type:Comp	Video:1					AutoOrient:NONE	3D:1								Blend:NORMAL		Collapse:1	UsedIn:1	startTime:7.56	inPoint:7.56	outPoint:15.04	Layer	Name:Brazzaville	ID:4262	CompID:4514	Type:Comp	Video:1					AutoOrient:NONE	3D:1								Blend:NORMAL		Collapse:1	UsedIn:1	startTime:7.52	inPoint:7.52	outPoint:15.04	Layer	Name:Rarotonga	ID:4262	CompID:4514	Type:Comp	Video:1					AutoOrient:NONE	3D:1								Blend:NORMAL		Collapse:1	UsedIn:1	startTime:7.48	inPoint:7.48	outPoint:15.04	Layer	Name:San Jos‚	ID:4262	CompID:4514	Type:Comp	Video:1					AutoOrient:NONE	3D:1								Blend:NORMAL		Collapse:1	UsedIn:1	startTime:7.44	inPoint:7.44	outPoint:15.04	Layer	Name:Abidjan	ID:4262	CompID:4514	Type:Comp	Video:1					AutoOrient:NONE	3D:1								Blend:NORMAL		Collapse:1	UsedIn:1	startTime:7.4	inPoint:7.4	outPoint:15.04	Layer	Name:Yamoussoukro	ID:4262	CompID:4514	Type:Comp	Video:1					AutoOrient:NONE	3D:1								Blend:NORMAL		Collapse:1	UsedIn:1	startTime:7.36	inPoint:7.36	outPoint:15.04	Layer	Name:Zagreb	ID:4262	CompID:4514	Type:Comp	Video:1					AutoOrient:NONE	3D:1								Blend:NORMAL		Collapse:1	UsedIn:1	startTime:7.32	inPoint:7.32	outPoint:15.04	Layer	Name:La Habana (Havana)	ID:4262	CompID:4514	Type:Comp	Video:1					AutoOrient:NONE	3D:1								Blend:NORMAL		Collapse:1	UsedIn:1	startTime:7.28	inPoint:7.28	outPoint:15.04	Layer	Name:Lefkosia (Nicosia)	ID:4262	CompID:4514	Type:Comp	Video:1					AutoOrient:NONE	3D:1								Blend:NORMAL		Collapse:1	UsedIn:1	startTime:7.24	inPoint:7.24	outPoint:15.04	Layer	Name:Praha (Prague)	ID:4262	CompID:4514	Type:Comp	Video:1					AutoOrient:NONE	3D:1								Blend:NORMAL		Collapse:1	UsedIn:1	startTime:7.2	inPoint:7.2	outPoint:15.04	Layer	Name:P'yongyang	ID:4262	CompID:4514	Type:Comp	Video:1					AutoOrient:NONE	3D:1								Blend:NORMAL		Collapse:1	UsedIn:1	startTime:7.16	inPoint:7.16	outPoint:15.04	Layer	Name:Kinshasa	ID:4262	CompID:4514	Type:Comp	Video:1					AutoOrient:NONE	3D:1								Blend:NORMAL		Collapse:1	UsedIn:1	startTime:7.12	inPoint:7.12	outPoint:15.04	Layer	Name:K?benhavn (Copenhagen)	ID:4262	CompID:4514	Type:Comp	Video:1					AutoOrient:NONE	3D:1								Blend:NORMAL		Collapse:1	UsedIn:1	startTime:7.08	inPoint:7.08	outPoint:15.04	Layer	Name:Djibouti	ID:4262	CompID:4514	Type:Comp	Video:1					AutoOrient:NONE	3D:1								Blend:NORMAL		Collapse:1	UsedIn:1	startTime:7.04	inPoint:7.04	outPoint:15.04	Layer	Name:Roseau	ID:4262	CompID:4514	Type:Comp	Video:1					AutoOrient:NONE	3D:1								Blend:NORMAL		Collapse:1	UsedIn:1	startTime:7	inPoint:7	outPoint:15.04	Layer	Name:Santo Domingo	ID:4262	CompID:4514	Type:Comp	Video:1					AutoOrient:NONE	3D:1								Blend:NORMAL		Collapse:1	UsedIn:1	startTime:6.96	inPoint:6.96	outPoint:15.04	Layer	Name:Quito	ID:4262	CompID:4514	Type:Comp	Video:1					AutoOrient:NONE	3D:1								Blend:NORMAL		Collapse:1	UsedIn:1	startTime:6.92	inPoint:6.92	outPoint:15.04	Layer	Name:Al-Qahirah (Cairo)	ID:4262	CompID:4514	Type:Comp	Video:1					AutoOrient:NONE	3D:1								Blend:NORMAL		Collapse:1	UsedIn:1	startTime:6.88	inPoint:6.88	outPoint:15.04	Layer	Name:San Salvador	ID:4262	CompID:4514	Type:Comp	Video:1					AutoOrient:NONE	3D:1								Blend:NORMAL		Collapse:1	UsedIn:1	startTime:6.84	inPoint:6.84	outPoint:15.04	Layer	Name:Malabo	ID:4262	CompID:4514	Type:Comp	Video:1					AutoOrient:NONE	3D:1								Blend:NORMAL		Collapse:1	UsedIn:1	startTime:6.8	inPoint:6.8	outPoint:15.04	Layer	Name:Asmara	ID:4262	CompID:4514	Type:Comp	Video:1					AutoOrient:NONE	3D:1								Blend:NORMAL		Collapse:1	UsedIn:1	startTime:6.76	inPoint:6.76	outPoint:15.04	Layer	Name:Tallinn	ID:4262	CompID:4514	Type:Comp	Video:1					AutoOrient:NONE	3D:1								Blend:NORMAL		Collapse:1	UsedIn:1	startTime:6.72	inPoint:6.72	outPoint:15.04	Layer	Name:Addis Ababa	ID:4262	CompID:4514	Type:Comp	Video:1					AutoOrient:NONE	3D:1								Blend:NORMAL		Collapse:1	UsedIn:1	startTime:6.68	inPoint:6.68	outPoint:15.04	Layer	Name:Stanley	ID:4262	CompID:4514	Type:Comp	Video:1					AutoOrient:NONE	3D:1								Blend:NORMAL		Collapse:1	UsedIn:1	startTime:6.64	inPoint:6.64	outPoint:15.04	Layer	Name:T¢rshavn	ID:4262	CompID:4514	Type:Comp	Video:1					AutoOrient:NONE	3D:1								Blend:NORMAL		Collapse:1	UsedIn:1	startTime:6.6	inPoint:6.6	outPoint:15.04	Layer	Name:Suva	ID:4262	CompID:4514	Type:Comp	Video:1					AutoOrient:NONE	3D:1								Blend:NORMAL		Collapse:1	UsedIn:1	startTime:6.56	inPoint:6.56	outPoint:15.04	Layer	Name:Helsinki	ID:4262	CompID:4514	Type:Comp	Video:1					AutoOrient:NONE	3D:1								Blend:NORMAL		Collapse:1	UsedIn:1	startTime:6.52	inPoint:6.52	outPoint:15.04	Layer	Name:Paris	ID:4262	CompID:4514	Type:Comp	Video:1					AutoOrient:NONE	3D:1								Blend:NORMAL		Collapse:1	UsedIn:1	startTime:6.48	inPoint:6.48	outPoint:15.04	Layer	Name:Cayenne	ID:4262	CompID:4514	Type:Comp	Video:1					AutoOrient:NONE	3D:1								Blend:NORMAL		Collapse:1	UsedIn:1	startTime:6.44	inPoint:6.44	outPoint:15.04	Layer	Name:Papeete	ID:4262	CompID:4514	Type:Comp	Video:1					AutoOrient:NONE	3D:1								Blend:NORMAL		Collapse:1	UsedIn:1	startTime:6.4	inPoint:6.4	outPoint:15.04	Layer	Name:Libreville	ID:4262	CompID:4514	Type:Comp	Video:1					AutoOrient:NONE	3D:1								Blend:NORMAL		Collapse:1	UsedIn:1	startTime:6.36	inPoint:6.36	outPoint:15.04	Layer	Name:Banjul	ID:4262	CompID:4514	Type:Comp	Video:1					AutoOrient:NONE	3D:1								Blend:NORMAL		Collapse:1	UsedIn:1	startTime:6.32	inPoint:6.32	outPoint:15.04	Layer	Name:Tbilisi	ID:4262	CompID:4514	Type:Comp	Video:1					AutoOrient:NONE	3D:1								Blend:NORMAL		Collapse:1	UsedIn:1	startTime:6.28	inPoint:6.28	outPoint:15.04	Layer	Name:Berlin	ID:4262	CompID:4514	Type:Comp	Video:1					AutoOrient:NONE	3D:1								Blend:NORMAL		Collapse:1	UsedIn:1	startTime:6.24	inPoint:6.24	outPoint:15.04	Layer	Name:Accra	ID:4262	CompID:4514	Type:Comp	Video:1					AutoOrient:NONE	3D:1								Blend:NORMAL		Collapse:1	UsedIn:1	startTime:6.2	inPoint:6.2	outPoint:15.04	Layer	Name:Gibraltar	ID:4262	CompID:4514	Type:Comp	Video:1					AutoOrient:NONE	3D:1								Blend:NORMAL		Collapse:1	UsedIn:1	startTime:6.16	inPoint:6.16	outPoint:15.04	Layer	Name:Ath¡nai (Athens)	ID:4262	CompID:4514	Type:Comp	Video:1					AutoOrient:NONE	3D:1								Blend:NORMAL		Collapse:1	UsedIn:1	startTime:6.12	inPoint:6.12	outPoint:15.04	Layer	Name:Nuuk (Godth†b)	ID:4262	CompID:4514	Type:Comp	Video:1					AutoOrient:NONE	3D:1								Blend:NORMAL		Collapse:1	UsedIn:1	startTime:6.08	inPoint:6.08	outPoint:15.04	Layer	Name:St.George's	ID:4262	CompID:4514	Type:Comp	Video:1					AutoOrient:NONE	3D:1								Blend:NORMAL		Collapse:1	UsedIn:1	startTime:6.04	inPoint:6.04	outPoint:15.04	Layer	Name:Basse-Terre	ID:4262	CompID:4514	Type:Comp	Video:1					AutoOrient:NONE	3D:1								Blend:NORMAL		Collapse:1	UsedIn:1	startTime:6	inPoint:6	outPoint:15.04	Layer	Name:Hag†t¤a	ID:4262	CompID:4514	Type:Comp	Video:1					AutoOrient:NONE	3D:1								Blend:NORMAL		Collapse:1	UsedIn:1	startTime:5.96	inPoint:5.96	outPoint:15.04	Layer	Name:Ciudad de Guatemala (Guatemala City)	ID:4262	CompID:4514	Type:Comp	Video:1					AutoOrient:NONE	3D:1								Blend:NORMAL		Collapse:1	UsedIn:1	startTime:5.92	inPoint:5.92	outPoint:15.04	Layer	Name:Conakry	ID:4262	CompID:4514	Type:Comp	Video:1					AutoOrient:NONE	3D:1								Blend:NORMAL		Collapse:1	UsedIn:1	startTime:5.88	inPoint:5.88	outPoint:15.04	Layer	Name:Bissau	ID:4262	CompID:4514	Type:Comp	Video:1					AutoOrient:NONE	3D:1								Blend:NORMAL		Collapse:1	UsedIn:1	startTime:5.84	inPoint:5.84	outPoint:15.04	Layer	Name:Georgetown	ID:4262	CompID:4514	Type:Comp	Video:1					AutoOrient:NONE	3D:1								Blend:NORMAL		Collapse:1	UsedIn:1	startTime:5.8	inPoint:5.8	outPoint:15.04	Layer	Name:Port-au-Prince	ID:4262	CompID:4514	Type:Comp	Video:1					AutoOrient:NONE	3D:1								Blend:NORMAL		Collapse:1	UsedIn:1	startTime:5.76	inPoint:5.76	outPoint:15.04	Layer	Name:Vatican City	ID:4262	CompID:4514	Type:Comp	Video:1					AutoOrient:NONE	3D:1								Blend:NORMAL		Collapse:1	UsedIn:1	startTime:5.72	inPoint:5.72	outPoint:15.04	Layer	Name:Tegucigalpa	ID:4262	CompID:4514	Type:Comp	Video:1					AutoOrient:NONE	3D:1								Blend:NORMAL		Collapse:1	UsedIn:1	startTime:5.68	inPoint:5.68	outPoint:15.04	Layer	Name:Budapest	ID:4262	CompID:4514	Type:Comp	Video:1					AutoOrient:NONE	3D:1								Blend:NORMAL		Collapse:1	UsedIn:1	startTime:5.64	inPoint:5.64	outPoint:15.04	Layer	Name:Reykjav¡k	ID:4262	CompID:4514	Type:Comp	Video:1					AutoOrient:NONE	3D:1								Blend:NORMAL		Collapse:1	UsedIn:1	startTime:5.6	inPoint:5.6	outPoint:15.04	Layer	Name:Delhi	ID:4262	CompID:4514	Type:Comp	Video:1					AutoOrient:NONE	3D:1								Blend:NORMAL		Collapse:1	UsedIn:1	startTime:5.56	inPoint:5.56	outPoint:15.04	Layer	Name:Jakarta	ID:4262	CompID:4514	Type:Comp	Video:1					AutoOrient:NONE	3D:1								Blend:NORMAL		Collapse:1	UsedIn:1	startTime:5.52	inPoint:5.52	outPoint:15.04	Layer	Name:Tehran	ID:4262	CompID:4514	Type:Comp	Video:1					AutoOrient:NONE	3D:1								Blend:NORMAL		Collapse:1	UsedIn:1	startTime:5.48	inPoint:5.48	outPoint:15.04	Layer	Name:Baghdad	ID:4262	CompID:4514	Type:Comp	Video:1					AutoOrient:NONE	3D:1								Blend:NORMAL		Collapse:1	UsedIn:1	startTime:5.44	inPoint:5.44	outPoint:15.04	Layer	Name:Dublin	ID:4262	CompID:4514	Type:Comp	Video:1					AutoOrient:NONE	3D:1								Blend:NORMAL		Collapse:1	UsedIn:1	startTime:5.4	inPoint:5.4	outPoint:15.04	Layer	Name:Douglas	ID:4262	CompID:4514	Type:Comp	Video:1					AutoOrient:NONE	3D:1								Blend:NORMAL		Collapse:1	UsedIn:1	startTime:5.36	inPoint:5.36	outPoint:15.04	Layer	Name:Jerusalem	ID:4262	CompID:4514	Type:Comp	Video:1					AutoOrient:NONE	3D:1								Blend:NORMAL		Collapse:1	UsedIn:1	startTime:5.32	inPoint:5.32	outPoint:15.04	Layer	Name:Roma (Rome)	ID:4262	CompID:4514	Type:Comp	Video:1					AutoOrient:NONE	3D:1								Blend:NORMAL		Collapse:1	UsedIn:1	startTime:5.28	inPoint:5.28	outPoint:15.04	Layer	Name:Kingston	ID:4262	CompID:4514	Type:Comp	Video:1					AutoOrient:NONE	3D:1								Blend:NORMAL		Collapse:1	UsedIn:1	startTime:5.24	inPoint:5.24	outPoint:15.04	Layer	Name:Tokyo	ID:4262	CompID:4514	Type:Comp	Video:1					AutoOrient:NONE	3D:1								Blend:NORMAL		Collapse:1	UsedIn:1	startTime:5.2	inPoint:5.2	outPoint:15.04	Layer	Name:Amman	ID:4262	CompID:4514	Type:Comp	Video:1					AutoOrient:NONE	3D:1								Blend:NORMAL		Collapse:1	UsedIn:1	startTime:5.16	inPoint:5.16	outPoint:15.04	Layer	Name:Astana	ID:4262	CompID:4514	Type:Comp	Video:1					AutoOrient:NONE	3D:1								Blend:NORMAL		Collapse:1	UsedIn:1	startTime:5.12	inPoint:5.12	outPoint:15.04	Layer	Name:Nairobi	ID:4262	CompID:4514	Type:Comp	Video:1					AutoOrient:NONE	3D:1								Blend:NORMAL		Collapse:1	UsedIn:1	startTime:5.08	inPoint:5.08	outPoint:15.04	Layer	Name:Tarawa	ID:4262	CompID:4514	Type:Comp	Video:1					AutoOrient:NONE	3D:1								Blend:NORMAL		Collapse:1	UsedIn:1	startTime:5.04	inPoint:5.04	outPoint:15.04	Layer	Name:Al Kuwayt (Kuwait City)	ID:4262	CompID:4514	Type:Comp	Video:1					AutoOrient:NONE	3D:1								Blend:NORMAL		Collapse:1	UsedIn:1	startTime:5	inPoint:5	outPoint:15.04	Layer	Name:Bishkek	ID:4262	CompID:4514	Type:Comp	Video:1					AutoOrient:NONE	3D:1								Blend:NORMAL		Collapse:1	UsedIn:1	startTime:4.96	inPoint:4.96	outPoint:15.04	Layer	Name:Vientiane	ID:4262	CompID:4514	Type:Comp	Video:1					AutoOrient:NONE	3D:1								Blend:NORMAL		Collapse:1	UsedIn:1	startTime:4.92	inPoint:4.92	outPoint:15.04	Layer	Name:Riga	ID:4262	CompID:4514	Type:Comp	Video:1					AutoOrient:NONE	3D:1								Blend:NORMAL		Collapse:1	UsedIn:1	startTime:4.88	inPoint:4.88	outPoint:15.04	Layer	Name:Bayrut (Beirut)	ID:4262	CompID:4514	Type:Comp	Video:1					AutoOrient:NONE	3D:1								Blend:NORMAL		Collapse:1	UsedIn:1	startTime:4.84	inPoint:4.84	outPoint:15.04	Layer	Name:Maseru	ID:4262	CompID:4514	Type:Comp	Video:1					AutoOrient:NONE	3D:1								Blend:NORMAL		Collapse:1	UsedIn:1	startTime:4.8	inPoint:4.8	outPoint:15.04	Layer	Name:Monrovia	ID:4262	CompID:4514	Type:Comp	Video:1					AutoOrient:NONE	3D:1								Blend:NORMAL		Collapse:1	UsedIn:1	startTime:4.76	inPoint:4.76	outPoint:15.04	Layer	Name:Tarabulus (Tripoli)	ID:4262	CompID:4514	Type:Comp	Video:1					AutoOrient:NONE	3D:1								Blend:NORMAL		Collapse:1	UsedIn:1	startTime:4.72	inPoint:4.72	outPoint:15.04	Layer	Name:Vaduz	ID:4262	CompID:4514	Type:Comp	Video:1					AutoOrient:NONE	3D:1								Blend:NORMAL		Collapse:1	UsedIn:1	startTime:4.68	inPoint:4.68	outPoint:15.04	Layer	Name:Vilnius	ID:4262	CompID:4514	Type:Comp	Video:1					AutoOrient:NONE	3D:1								Blend:NORMAL		Collapse:1	UsedIn:1	startTime:4.64	inPoint:4.64	outPoint:15.04	Layer	Name:Luxembourg	ID:4262	CompID:4514	Type:Comp	Video:1					AutoOrient:NONE	3D:1								Blend:NORMAL		Collapse:1	UsedIn:1	startTime:4.6	inPoint:4.6	outPoint:15.04	Layer	Name:Antananarivo	ID:4262	CompID:4514	Type:Comp	Video:1					AutoOrient:NONE	3D:1								Blend:NORMAL		Collapse:1	UsedIn:1	startTime:4.56	inPoint:4.56	outPoint:15.04	Layer	Name:Lilongwe	ID:4262	CompID:4514	Type:Comp	Video:1					AutoOrient:NONE	3D:1								Blend:NORMAL		Collapse:1	UsedIn:1	startTime:4.52	inPoint:4.52	outPoint:15.04	Layer	Name:Kuala Lumpur	ID:4262	CompID:4514	Type:Comp	Video:1					AutoOrient:NONE	3D:1								Blend:NORMAL		Collapse:1	UsedIn:1	startTime:4.48	inPoint:4.48	outPoint:15.04	Layer	Name:Male	ID:4262	CompID:4514	Type:Comp	Video:1					AutoOrient:NONE	3D:1								Blend:NORMAL		Collapse:1	UsedIn:1	startTime:4.44	inPoint:4.44	outPoint:15.04	Layer	Name:Bamako	ID:4262	CompID:4514	Type:Comp	Video:1					AutoOrient:NONE	3D:1								Blend:NORMAL		Collapse:1	UsedIn:1	startTime:4.4	inPoint:4.4	outPoint:15.04	Layer	Name:Valletta	ID:4262	CompID:4514	Type:Comp	Video:1					AutoOrient:NONE	3D:1								Blend:NORMAL		Collapse:1	UsedIn:1	startTime:4.36	inPoint:4.36	outPoint:15.04	Layer	Name:Majuro	ID:4262	CompID:4514	Type:Comp	Video:1					AutoOrient:NONE	3D:1								Blend:NORMAL		Collapse:1	UsedIn:1	startTime:4.32	inPoint:4.32	outPoint:15.04	Layer	Name:Fort-de-France	ID:4262	CompID:4514	Type:Comp	Video:1					AutoOrient:NONE	3D:1								Blend:NORMAL		Collapse:1	UsedIn:1	startTime:4.28	inPoint:4.28	outPoint:15.04	Layer	Name:Nouakchott	ID:4262	CompID:4514	Type:Comp	Video:1					AutoOrient:NONE	3D:1								Blend:NORMAL		Collapse:1	UsedIn:1	startTime:4.24	inPoint:4.24	outPoint:15.04	Layer	Name:Port Louis	ID:4262	CompID:4514	Type:Comp	Video:1					AutoOrient:NONE	3D:1								Blend:NORMAL		Collapse:1	UsedIn:1	startTime:4.2	inPoint:4.2	outPoint:15.04	Layer	Name:Mamoudzou	ID:4262	CompID:4514	Type:Comp	Video:1					AutoOrient:NONE	3D:1								Blend:NORMAL		Collapse:1	UsedIn:1	startTime:4.16	inPoint:4.16	outPoint:15.04	Layer	Name:Ciudad de M‚xico (Mexico City)	ID:4262	CompID:4514	Type:Comp	Video:1					AutoOrient:NONE	3D:1								Blend:NORMAL		Collapse:1	UsedIn:1	startTime:4.12	inPoint:4.12	outPoint:15.04	Layer	Name:Palikir	ID:4262	CompID:4514	Type:Comp	Video:1					AutoOrient:NONE	3D:1								Blend:NORMAL		Collapse:1	UsedIn:1	startTime:4.08	inPoint:4.08	outPoint:15.04	Layer	Name:Monaco	ID:4262	CompID:4514	Type:Comp	Video:1					AutoOrient:NONE	3D:1								Blend:NORMAL		Collapse:1	UsedIn:1	startTime:4.04	inPoint:4.04	outPoint:15.04	Layer	Name:Ulaanbaatar	ID:4262	CompID:4514	Type:Comp	Video:1					AutoOrient:NONE	3D:1								Blend:NORMAL		Collapse:1	UsedIn:1	startTime:4	inPoint:4	outPoint:15.04	Layer	Name:Podgorica	ID:4262	CompID:4514	Type:Comp	Video:1					AutoOrient:NONE	3D:1								Blend:NORMAL		Collapse:1	UsedIn:1	startTime:3.96	inPoint:3.96	outPoint:15.04	Layer	Name:Brades Estate	ID:4262	CompID:4514	Type:Comp	Video:1					AutoOrient:NONE	3D:1								Blend:NORMAL		Collapse:1	UsedIn:1	startTime:3.92	inPoint:3.92	outPoint:15.04	Layer	Name:Plymouth	ID:4262	CompID:4514	Type:Comp	Video:1					AutoOrient:NONE	3D:1								Blend:NORMAL		Collapse:1	UsedIn:1	startTime:3.88	inPoint:3.88	outPoint:15.04	Layer	Name:Rabat	ID:4262	CompID:4514	Type:Comp	Video:1					AutoOrient:NONE	3D:1								Blend:NORMAL		Collapse:1	UsedIn:1	startTime:3.84	inPoint:3.84	outPoint:15.04	Layer	Name:Maputo	ID:4262	CompID:4514	Type:Comp	Video:1					AutoOrient:NONE	3D:1								Blend:NORMAL		Collapse:1	UsedIn:1	startTime:3.8	inPoint:3.8	outPoint:15.04	Layer	Name:Nay Pyi Taw	ID:4262	CompID:4514	Type:Comp	Video:1					AutoOrient:NONE	3D:1								Blend:NORMAL		Collapse:1	UsedIn:1	startTime:3.76	inPoint:3.76	outPoint:15.04	Layer	Name:Windhoek	ID:4262	CompID:4514	Type:Comp	Video:1					AutoOrient:NONE	3D:1								Blend:NORMAL		Collapse:1	UsedIn:1	startTime:3.72	inPoint:3.72	outPoint:15.04	Layer	Name:Nauru	ID:4262	CompID:4514	Type:Comp	Video:1					AutoOrient:NONE	3D:1								Blend:NORMAL		Collapse:1	UsedIn:1	startTime:3.68	inPoint:3.68	outPoint:15.04	Layer	Name:Kathmandu	ID:4262	CompID:4514	Type:Comp	Video:1					AutoOrient:NONE	3D:1								Blend:NORMAL		Collapse:1	UsedIn:1	startTime:3.64	inPoint:3.64	outPoint:15.04	Layer	Name:Amsterdam	ID:4262	CompID:4514	Type:Comp	Video:1					AutoOrient:NONE	3D:1								Blend:NORMAL		Collapse:1	UsedIn:1	startTime:3.6	inPoint:3.6	outPoint:15.04	Layer	Name:s-Gravenhage (The Hague)	ID:4262	CompID:4514	Type:Comp	Video:1					AutoOrient:NONE	3D:1								Blend:NORMAL		Collapse:1	UsedIn:1	startTime:3.56	inPoint:3.56	outPoint:15.04	Layer	Name:Willemstad	ID:4262	CompID:4514	Type:Comp	Video:1					AutoOrient:NONE	3D:1								Blend:NORMAL		Collapse:1	UsedIn:1	startTime:3.52	inPoint:3.52	outPoint:15.04	Layer	Name:Noum‚a	ID:4262	CompID:4514	Type:Comp	Video:1					AutoOrient:NONE	3D:1								Blend:NORMAL		Collapse:1	UsedIn:1	startTime:3.48	inPoint:3.48	outPoint:15.04	Layer	Name:Wellington	ID:4262	CompID:4514	Type:Comp	Video:1					AutoOrient:NONE	3D:1								Blend:NORMAL		Collapse:1	UsedIn:1	startTime:3.44	inPoint:3.44	outPoint:15.04	Layer	Name:Managua	ID:4262	CompID:4514	Type:Comp	Video:1					AutoOrient:NONE	3D:1								Blend:NORMAL		Collapse:1	UsedIn:1	startTime:3.4	inPoint:3.4	outPoint:15.04	Layer	Name:Niamey	ID:4262	CompID:4514	Type:Comp	Video:1					AutoOrient:NONE	3D:1								Blend:NORMAL		Collapse:1	UsedIn:1	startTime:3.36	inPoint:3.36	outPoint:15.04	Layer	Name:Abuja	ID:4262	CompID:4514	Type:Comp	Video:1					AutoOrient:NONE	3D:1								Blend:NORMAL		Collapse:1	UsedIn:1	startTime:3.32	inPoint:3.32	outPoint:15.04	Layer	Name:Alofi	ID:4262	CompID:4514	Type:Comp	Video:1					AutoOrient:NONE	3D:1								Blend:NORMAL		Collapse:1	UsedIn:1	startTime:3.28	inPoint:3.28	outPoint:15.04	Layer	Name:Saipan	ID:4262	CompID:4514	Type:Comp	Video:1					AutoOrient:NONE	3D:1								Blend:NORMAL		Collapse:1	UsedIn:1	startTime:3.24	inPoint:3.24	outPoint:15.04	Layer	Name:Oslo	ID:4262	CompID:4514	Type:Comp	Video:1					AutoOrient:NONE	3D:1								Blend:NORMAL		Collapse:1	UsedIn:1	startTime:3.2	inPoint:3.2	outPoint:15.04	Layer	Name:Ramallah	ID:4262	CompID:4514	Type:Comp	Video:1					AutoOrient:NONE	3D:1								Blend:NORMAL		Collapse:1	UsedIn:1	startTime:3.16	inPoint:3.16	outPoint:15.04	Layer	Name:Masqat (Muscat)	ID:4262	CompID:4514	Type:Comp	Video:1					AutoOrient:NONE	3D:1								Blend:NORMAL		Collapse:1	UsedIn:1	startTime:3.12	inPoint:3.12	outPoint:15.04	Layer	Name:Islamabad	ID:4262	CompID:4514	Type:Comp	Video:1					AutoOrient:NONE	3D:1								Blend:NORMAL		Collapse:1	UsedIn:1	startTime:3.08	inPoint:3.08	outPoint:15.04	Layer	Name:Melekeok	ID:4262	CompID:4514	Type:Comp	Video:1					AutoOrient:NONE	3D:1								Blend:NORMAL		Collapse:1	UsedIn:1	startTime:3.04	inPoint:3.04	outPoint:15.04	Layer	Name:Ciudad de Panam  (Panama City)	ID:4262	CompID:4514	Type:Comp	Video:1					AutoOrient:NONE	3D:1								Blend:NORMAL		Collapse:1	UsedIn:1	startTime:3	inPoint:3	outPoint:15.04	Layer	Name:Port Moresby	ID:4262	CompID:4514	Type:Comp	Video:1					AutoOrient:NONE	3D:1								Blend:NORMAL		Collapse:1	UsedIn:1	startTime:2.96	inPoint:2.96	outPoint:15.04	Layer	Name:Asunci¢n	ID:4262	CompID:4514	Type:Comp	Video:1					AutoOrient:NONE	3D:1								Blend:NORMAL		Collapse:1	UsedIn:1	startTime:2.92	inPoint:2.92	outPoint:15.04	Layer	Name:Lima	ID:4262	CompID:4514	Type:Comp	Video:1					AutoOrient:NONE	3D:1								Blend:NORMAL		Collapse:1	UsedIn:1	startTime:2.88	inPoint:2.88	outPoint:15.04	Layer	Name:Manila	ID:4262	CompID:4514	Type:Comp	Video:1					AutoOrient:NONE	3D:1								Blend:NORMAL		Collapse:1	UsedIn:1	startTime:2.84	inPoint:2.84	outPoint:15.04	Layer	Name:Adamstown	ID:4262	CompID:4514	Type:Comp	Video:1					AutoOrient:NONE	3D:1								Blend:NORMAL		Collapse:1	UsedIn:1	startTime:2.8	inPoint:2.8	outPoint:15.04	Layer	Name:Warszawa (Warsaw)	ID:4262	CompID:4514	Type:Comp	Video:1					AutoOrient:NONE	3D:1								Blend:NORMAL		Collapse:1	UsedIn:1	startTime:2.76	inPoint:2.76	outPoint:15.04	Layer	Name:Lisboa (Lisbon)	ID:4262	CompID:4514	Type:Comp	Video:1					AutoOrient:NONE	3D:1								Blend:NORMAL		Collapse:1	UsedIn:1	startTime:2.72	inPoint:2.72	outPoint:15.04	Layer	Name:San Juan	ID:4262	CompID:4514	Type:Comp	Video:1					AutoOrient:NONE	3D:1								Blend:NORMAL		Collapse:1	UsedIn:1	startTime:2.68	inPoint:2.68	outPoint:15.04	Layer	Name:Ad-Dawhah (Doha)	ID:4262	CompID:4514	Type:Comp	Video:1					AutoOrient:NONE	3D:1								Blend:NORMAL		Collapse:1	UsedIn:1	startTime:2.64	inPoint:2.64	outPoint:15.04	Layer	Name:Seoul	ID:4262	CompID:4514	Type:Comp	Video:1					AutoOrient:NONE	3D:1								Blend:NORMAL		Collapse:1	UsedIn:1	startTime:2.6	inPoint:2.6	outPoint:15.04	Layer	Name:Chi?in?u	ID:4262	CompID:4514	Type:Comp	Video:1					AutoOrient:NONE	3D:1								Blend:NORMAL		Collapse:1	UsedIn:1	startTime:2.56	inPoint:2.56	outPoint:15.04	Layer	Name:Saint-Denis	ID:4262	CompID:4514	Type:Comp	Video:1					AutoOrient:NONE	3D:1								Blend:NORMAL		Collapse:1	UsedIn:1	startTime:2.52	inPoint:2.52	outPoint:15.04	Layer	Name:Bucuresti (Bucharest)	ID:4262	CompID:4514	Type:Comp	Video:1					AutoOrient:NONE	3D:1								Blend:NORMAL		Collapse:1	UsedIn:1	startTime:2.48	inPoint:2.48	outPoint:15.04	Layer	Name:Moskva (Moscow)	ID:4262	CompID:4514	Type:Comp	Video:1					AutoOrient:NONE	3D:1								Blend:NORMAL		Collapse:1	UsedIn:1	startTime:2.44	inPoint:2.44	outPoint:15.04	Layer	Name:Kigali	ID:4262	CompID:4514	Type:Comp	Video:1					AutoOrient:NONE	3D:1								Blend:NORMAL		Collapse:1	UsedIn:1	startTime:2.4	inPoint:2.4	outPoint:15.04	Layer	Name:Jamestown	ID:4262	CompID:4514	Type:Comp	Video:1					AutoOrient:NONE	3D:1								Blend:NORMAL		Collapse:1	UsedIn:1	startTime:2.36	inPoint:2.36	outPoint:15.04	Layer	Name:Basseterre	ID:4262	CompID:4514	Type:Comp	Video:1					AutoOrient:NONE	3D:1								Blend:NORMAL		Collapse:1	UsedIn:1	startTime:2.32	inPoint:2.32	outPoint:15.04	Layer	Name:Castries	ID:4262	CompID:4514	Type:Comp	Video:1					AutoOrient:NONE	3D:1								Blend:NORMAL		Collapse:1	UsedIn:1	startTime:2.28	inPoint:2.28	outPoint:15.04	Layer	Name:Saint-Pierre	ID:4262	CompID:4514	Type:Comp	Video:1					AutoOrient:NONE	3D:1								Blend:NORMAL		Collapse:1	UsedIn:1	startTime:2.24	inPoint:2.24	outPoint:15.04	Layer	Name:Kingstown	ID:4262	CompID:4514	Type:Comp	Video:1					AutoOrient:NONE	3D:1								Blend:NORMAL		Collapse:1	UsedIn:1	startTime:2.2	inPoint:2.2	outPoint:15.04	Layer	Name:Apia	ID:4262	CompID:4514	Type:Comp	Video:1					AutoOrient:NONE	3D:1								Blend:NORMAL		Collapse:1	UsedIn:1	startTime:2.16	inPoint:2.16	outPoint:15.04	Layer	Name:San Marino	ID:4262	CompID:4514	Type:Comp	Video:1					AutoOrient:NONE	3D:1								Blend:NORMAL		Collapse:1	UsedIn:1	startTime:2.12	inPoint:2.12	outPoint:15.04	Layer	Name:S?o Tom‚	ID:4262	CompID:4514	Type:Comp	Video:1					AutoOrient:NONE	3D:1								Blend:NORMAL		Collapse:1	UsedIn:1	startTime:2.08	inPoint:2.08	outPoint:15.04	Layer	Name:Ar-Riyadh (Riyadh)	ID:4262	CompID:4514	Type:Comp	Video:1					AutoOrient:NONE	3D:1								Blend:NORMAL		Collapse:1	UsedIn:1	startTime:2.04	inPoint:2.04	outPoint:15.04	Layer	Name:Dakar	ID:4262	CompID:4514	Type:Comp	Video:1					AutoOrient:NONE	3D:1								Blend:NORMAL		Collapse:1	UsedIn:1	startTime:2	inPoint:2	outPoint:15.04	Layer	Name:Beograd (Belgrade)	ID:4262	CompID:4514	Type:Comp	Video:1					AutoOrient:NONE	3D:1								Blend:NORMAL		Collapse:1	UsedIn:1	startTime:1.96	inPoint:1.96	outPoint:15.04	Layer	Name:Victoria	ID:4262	CompID:4514	Type:Comp	Video:1					AutoOrient:NONE	3D:1								Blend:NORMAL		Collapse:1	UsedIn:1	startTime:1.92	inPoint:1.92	outPoint:15.04	Layer	Name:Freetown	ID:4262	CompID:4514	Type:Comp	Video:1					AutoOrient:NONE	3D:1								Blend:NORMAL		Collapse:1	UsedIn:1	startTime:1.88	inPoint:1.88	outPoint:15.04	Layer	Name:Singapore	ID:4262	CompID:4514	Type:Comp	Video:1					AutoOrient:NONE	3D:1								Blend:NORMAL		Collapse:1	UsedIn:1	startTime:1.84	inPoint:1.84	outPoint:15.04	Layer	Name:Bratislava	ID:4262	CompID:4514	Type:Comp	Video:1					AutoOrient:NONE	3D:1								Blend:NORMAL		Collapse:1	UsedIn:1	startTime:1.8	inPoint:1.8	outPoint:15.04	Layer	Name:Ljubljana	ID:4262	CompID:4514	Type:Comp	Video:1					AutoOrient:NONE	3D:1								Blend:NORMAL		Collapse:1	UsedIn:1	startTime:1.76	inPoint:1.76	outPoint:15.04	Layer	Name:Honiara	ID:4262	CompID:4514	Type:Comp	Video:1					AutoOrient:NONE	3D:1								Blend:NORMAL		Collapse:1	UsedIn:1	startTime:1.72	inPoint:1.72	outPoint:15.04	Layer	Name:Muqdisho (Mogadishu)	ID:4262	CompID:4514	Type:Comp	Video:1					AutoOrient:NONE	3D:1								Blend:NORMAL		Collapse:1	UsedIn:1	startTime:1.68	inPoint:1.68	outPoint:15.04	Layer	Name:Bloemfontein	ID:4262	CompID:4514	Type:Comp	Video:1					AutoOrient:NONE	3D:1								Blend:NORMAL		Collapse:1	UsedIn:1	startTime:1.64	inPoint:1.64	outPoint:15.04	Layer	Name:Cape Town	ID:4262	CompID:4514	Type:Comp	Video:1					AutoOrient:NONE	3D:1								Blend:NORMAL		Collapse:1	UsedIn:1	startTime:1.6	inPoint:1.6	outPoint:15.04	Layer	Name:Pretoria	ID:4262	CompID:4514	Type:Comp	Video:1					AutoOrient:NONE	3D:1								Blend:NORMAL		Collapse:1	UsedIn:1	startTime:1.56	inPoint:1.56	outPoint:15.04	Layer	Name:Juba	ID:4262	CompID:4514	Type:Comp	Video:1					AutoOrient:NONE	3D:1								Blend:NORMAL		Collapse:1	UsedIn:1	startTime:1.52	inPoint:1.52	outPoint:15.04	Layer	Name:Madrid	ID:4262	CompID:4514	Type:Comp	Video:1					AutoOrient:NONE	3D:1								Blend:NORMAL		Collapse:1	UsedIn:1	startTime:1.48	inPoint:1.48	outPoint:15.04	Layer	Name:Colombo	ID:4262	CompID:4514	Type:Comp	Video:1					AutoOrient:NONE	3D:1								Blend:NORMAL		Collapse:1	UsedIn:1	startTime:1.44	inPoint:1.44	outPoint:15.04	Layer	Name:Sri Jayewardenepura Kotte	ID:4262	CompID:4514	Type:Comp	Video:1					AutoOrient:NONE	3D:1								Blend:NORMAL		Collapse:1	UsedIn:1	startTime:1.4	inPoint:1.4	outPoint:15.04	Layer	Name:Al-Khartum (Khartoum)	ID:4262	CompID:4514	Type:Comp	Video:1					AutoOrient:NONE	3D:1								Blend:NORMAL		Collapse:1	UsedIn:1	startTime:1.36	inPoint:1.36	outPoint:15.04	Layer	Name:Paramaribo	ID:4262	CompID:4514	Type:Comp	Video:1					AutoOrient:NONE	3D:1								Blend:NORMAL		Collapse:1	UsedIn:1	startTime:1.32	inPoint:1.32	outPoint:15.04	Layer	Name:Mbabane	ID:4262	CompID:4514	Type:Comp	Video:1					AutoOrient:NONE	3D:1								Blend:NORMAL		Collapse:1	UsedIn:1	startTime:1.28	inPoint:1.28	outPoint:15.04	Layer	Name:Stockholm	ID:4262	CompID:4514	Type:Comp	Video:1					AutoOrient:NONE	3D:1								Blend:NORMAL		Collapse:1	UsedIn:1	startTime:1.24	inPoint:1.24	outPoint:15.04	Layer	Name:Bern	ID:4262	CompID:4514	Type:Comp	Video:1					AutoOrient:NONE	3D:1								Blend:NORMAL		Collapse:1	UsedIn:1	startTime:1.2	inPoint:1.2	outPoint:15.04	Layer	Name:Dimashq (Damascus)	ID:4262	CompID:4514	Type:Comp	Video:1					AutoOrient:NONE	3D:1								Blend:NORMAL		Collapse:1	UsedIn:1	startTime:1.16	inPoint:1.16	outPoint:15.04	Layer	Name:Dushanbe	ID:4262	CompID:4514	Type:Comp	Video:1					AutoOrient:NONE	3D:1								Blend:NORMAL		Collapse:1	UsedIn:1	startTime:1.12	inPoint:1.12	outPoint:15.04	Layer	Name:Skopje	ID:4262	CompID:4514	Type:Comp	Video:1					AutoOrient:NONE	3D:1								Blend:NORMAL		Collapse:1	UsedIn:1	startTime:1.08	inPoint:1.08	outPoint:15.04	Layer	Name:Krung Thep (Bangkok)	ID:4262	CompID:4514	Type:Comp	Video:1					AutoOrient:NONE	3D:1								Blend:NORMAL		Collapse:1	UsedIn:1	startTime:1.04	inPoint:1.04	outPoint:15.04	Layer	Name:Dili	ID:4262	CompID:4514	Type:Comp	Video:1					AutoOrient:NONE	3D:1								Blend:NORMAL		Collapse:1	UsedIn:1	startTime:1	inPoint:1	outPoint:15.04	Layer	Name:Lom‚	ID:4262	CompID:4514	Type:Comp	Video:1					AutoOrient:NONE	3D:1								Blend:NORMAL		Collapse:1	UsedIn:1	startTime:0.96	inPoint:0.96	outPoint:15.04	Layer	Name:Nuku'alofa	ID:4262	CompID:4514	Type:Comp	Video:1					AutoOrient:NONE	3D:1								Blend:NORMAL		Collapse:1	UsedIn:1	startTime:0.92	inPoint:0.92	outPoint:15.04	Layer	Name:Port of Spain	ID:4262	CompID:4514	Type:Comp	Video:1					AutoOrient:NONE	3D:1								Blend:NORMAL		Collapse:1	UsedIn:1	startTime:0.88	inPoint:0.88	outPoint:15.04	Layer	Name:Tunis	ID:4262	CompID:4514	Type:Comp	Video:1					AutoOrient:NONE	3D:1								Blend:NORMAL		Collapse:1	UsedIn:1	startTime:0.84	inPoint:0.84	outPoint:15.04	Layer	Name:Ankara	ID:4262	CompID:4514	Type:Comp	Video:1					AutoOrient:NONE	3D:1								Blend:NORMAL		Collapse:1	UsedIn:1	startTime:0.8	inPoint:0.8	outPoint:15.04	Layer	Name:Ashgabat	ID:4262	CompID:4514	Type:Comp	Video:1					AutoOrient:NONE	3D:1								Blend:NORMAL		Collapse:1	UsedIn:1	startTime:0.76	inPoint:0.76	outPoint:15.04	Layer	Name:Cockburn Town	ID:4262	CompID:4514	Type:Comp	Video:1					AutoOrient:NONE	3D:1								Blend:NORMAL		Collapse:1	UsedIn:1	startTime:0.72	inPoint:0.72	outPoint:15.04	Layer	Name:Funafuti	ID:4262	CompID:4514	Type:Comp	Video:1					AutoOrient:NONE	3D:1								Blend:NORMAL		Collapse:1	UsedIn:1	startTime:0.68	inPoint:0.68	outPoint:15.04	Layer	Name:Kampala	ID:4262	CompID:4514	Type:Comp	Video:1					AutoOrient:NONE	3D:1								Blend:NORMAL		Collapse:1	UsedIn:1	startTime:0.64	inPoint:0.64	outPoint:15.04	Layer	Name:Kyiv (Kiev)	ID:4262	CompID:4514	Type:Comp	Video:1					AutoOrient:NONE	3D:1								Blend:NORMAL		Collapse:1	UsedIn:1	startTime:0.6	inPoint:0.6	outPoint:15.04	Layer	Name:Abu Zaby (Abu Dhabi)	ID:4262	CompID:4514	Type:Comp	Video:1					AutoOrient:NONE	3D:1								Blend:NORMAL		Collapse:1	UsedIn:1	startTime:0.56	inPoint:0.56	outPoint:15.04	Layer	Name:London	ID:4262	CompID:4514	Type:Comp	Video:1					AutoOrient:NONE	3D:1								Blend:NORMAL		Collapse:1	UsedIn:1	startTime:0.52	inPoint:0.52	outPoint:15.04	Layer	Name:Dodoma	ID:4262	CompID:4514	Type:Comp	Video:1					AutoOrient:NONE	3D:1								Blend:NORMAL		Collapse:1	UsedIn:1	startTime:0.48	inPoint:0.48	outPoint:15.04	Layer	Name:Washington%c% D.C.	ID:4262	CompID:4514	Type:Comp	Video:1					AutoOrient:NONE	3D:1								Blend:NORMAL		Collapse:1	UsedIn:1	startTime:0.44	inPoint:0.44	outPoint:15.04	Layer	Name:Charlotte Amalie	ID:4262	CompID:4514	Type:Comp	Video:1					AutoOrient:NONE	3D:1								Blend:NORMAL		Collapse:1	UsedIn:1	startTime:0.4	inPoint:0.4	outPoint:15.04	Layer	Name:Montevideo	ID:4262	CompID:4514	Type:Comp	Video:1					AutoOrient:NONE	3D:1								Blend:NORMAL		Collapse:1	UsedIn:1	startTime:0.36	inPoint:0.36	outPoint:15.04	Layer	Name:Tashkent	ID:4262	CompID:4514	Type:Comp	Video:1					AutoOrient:NONE	3D:1								Blend:NORMAL		Collapse:1	UsedIn:1	startTime:0.32	inPoint:0.32	outPoint:15.04	Layer	Name:Port Vila	ID:4262	CompID:4514	Type:Comp	Video:1					AutoOrient:NONE	3D:1								Blend:NORMAL		Collapse:1	UsedIn:1	startTime:0.28	inPoint:0.28	outPoint:15.04	Layer	Name:Caracas	ID:4262	CompID:4514	Type:Comp	Video:1					AutoOrient:NONE	3D:1								Blend:NORMAL		Collapse:1	UsedIn:1	startTime:0.24	inPoint:0.24	outPoint:15.04	Layer	Name:H… Noi	ID:4262	CompID:4514	Type:Comp	Video:1					AutoOrient:NONE	3D:1								Blend:NORMAL		Collapse:1	UsedIn:1	startTime:0.2	inPoint:0.2	outPoint:15.04	Layer	Name:Matu-Utu	ID:4262	CompID:4514	Type:Comp	Video:1					AutoOrient:NONE	3D:1								Blend:NORMAL		Collapse:1	UsedIn:1	startTime:0.16	inPoint:0.16	outPoint:15.04	Layer	Name:El Aai£n	ID:4262	CompID:4514	Type:Comp	Video:1					AutoOrient:NONE	3D:1								Blend:NORMAL		Collapse:1	UsedIn:1	startTime:0.12	inPoint:0.12	outPoint:15.04	Layer	Name:Sana'a'	ID:4262	CompID:4514	Type:Comp	Video:1					AutoOrient:NONE	3D:1								Blend:NORMAL		Collapse:1	UsedIn:1	startTime:0.08	inPoint:0.08	outPoint:15.04	Layer	Name:Lusaka	ID:4262	CompID:4514	Type:Comp	Video:1					AutoOrient:NONE	3D:1								Blend:NORMAL		Collapse:1	UsedIn:1	startTime:0.04	inPoint:0.04	outPoint:15.04	Layer	Name:Harare	ID:4262	CompID:4514	Type:Comp	Video:1					AutoOrient:NONE	3D:1								Blend:NORMAL		Collapse:1	UsedIn:1	startTime:0	inPoint:0	outPoint:15.04	Layer	Name:Solid_brave new world		CompID:3622	Type:Shape	Video:1					AutoOrient:NONE									Blend:NORMAL				startTime:0	inPoint:0	outPoint:16.04	Layer	Name:Placemarks Citys	ID:4514	CompID:3622	Type:Comp	Video:1					AutoOrient:NONE									Blend:NORMAL		Collapse:1	UsedIn:1	startTime:1	inPoint:1	outPoint:16.04	Layer	Name:City Names	ID:4012	CompID:3622	Type:Comp	Video:1					AutoOrient:NONE									Blend:NORMAL		Collapse:1	UsedIn:1	startTime:1.28	inPoint:1.28	outPoint:16.04	Layer	Name:Wei§e FarbflŠche 1	ID:6052	CompID:6039	Type:Solid	Video:1					AutoOrient:NONE									Blend:NORMAL			UsedIn:1	startTime:0	inPoint:0	outPoint:16.04	Layer	Name:PlacemarksMap	ID:3622	CompID:6039	Type:Comp	Video:1					AutoOrient:NONE									Blend:NORMAL			UsedIn:1	startTime:0	inPoint:0	outPoint:16.04	Text		Layer:1	CompID:4012	Font:Helvetica	FontSize:10	Fill:1	Stroke:1	StrokeOverFill:0	Justify:CENTER				FillColor:1;1;1	StrokeColor:0;0;0	StrokeWidth:1	Tracking:0				Values:HarareValues		Layer:1	CompID:4012																PropName:Position	Property:ADBE Transform Group|ADBE Position	Values:633.150024414062;323.489990234375;0Values		Layer:1	CompID:4012																PropName:Skalierung	Property:ADBE Transform Group|ADBE Scale					Values:0;0;100|100;100;100	Times:0|0.24	Interp:1;L;L:ITE;0;16.666666667;0;16.666666667;0;16.666666667:OTE;416.666666666667;16.666666667;416.666666666667;16.666666667;0;16.666666667|2;L;L:ITE;416.666666666667;16.666666667;416.666666666667;16.666666667;0;16.666666667:OTE;0;16.666666667;0;16.666666667;0;16.666666667Text		Layer:2	CompID:4012	Font:Helvetica	FontSize:10	Fill:1	Stroke:1	StrokeOverFill:0	Justify:CENTER				FillColor:1;1;1	StrokeColor:0;0;0	StrokeWidth:1	Tracking:0				Values:LusakaValues		Layer:2	CompID:4012																PropName:Position	Property:ADBE Transform Group|ADBE Position	Values:624.989990234375;316.290008544922;0Values		Layer:2	CompID:4012																PropName:Skalierung	Property:ADBE Transform Group|ADBE Scale					Values:0;0;100|100;100;100	Times:0.04|0.28	Interp:1;L;L:ITE;0;16.666666667;0;16.666666667;0;16.666666667:OTE;416.666666666667;16.666666667;416.666666666667;16.666666667;0;16.666666667|2;L;L:ITE;416.666666666667;16.666666667;416.666666666667;16.666666667;0;16.666666667:OTE;0;16.666666667;0;16.666666667;0;16.666666667Text		Layer:3	CompID:4012	Font:Helvetica	FontSize:10	Fill:1	Stroke:1	StrokeOverFill:0	Justify:CENTER				FillColor:1;1;1	StrokeColor:0;0;0	StrokeWidth:1	Tracking:0				Values:Sana'a'Values		Layer:3	CompID:4012																PropName:Position	Property:ADBE Transform Group|ADBE Position	Values:672.630004882812;223.860000610352;0Values		Layer:3	CompID:4012																PropName:Skalierung	Property:ADBE Transform Group|ADBE Scale					Values:0;0;100|100;100;100	Times:0.08|0.32	Interp:1;L;L:ITE;0;16.666666667;0;16.666666667;0;16.666666667:OTE;416.666666666667;16.666666667;416.666666666667;16.666666667;0;16.666666667|2;L;L:ITE;416.666666666667;16.666666667;416.666666666667;16.666666667;0;16.666666667:OTE;0;16.666666667;0;16.666666667;0;16.666666667Text		Layer:4	CompID:4012	Font:Helvetica	FontSize:10	Fill:1	Stroke:1	StrokeOverFill:0	Justify:CENTER				FillColor:1;1;1	StrokeColor:0;0;0	StrokeWidth:1	Tracking:0				Values:El Aai£nValues		Layer:4	CompID:4012																PropName:Position	Property:ADBE Transform Group|ADBE Position	Values:500.399993896484;188.550003051758;0Values		Layer:4	CompID:4012																PropName:Skalierung	Property:ADBE Transform Group|ADBE Scale					Values:0;0;100|100;100;100	Times:0.12|0.36	Interp:1;L;L:ITE;0;16.666666667;0;16.666666667;0;16.666666667:OTE;416.666666666667;16.666666667;416.666666666667;16.666666667;0;16.666666667|2;L;L:ITE;416.666666666667;16.666666667;416.666666666667;16.666666667;0;16.666666667:OTE;0;16.666666667;0;16.666666667;0;16.666666667Text		Layer:5	CompID:4012	Font:Helvetica	FontSize:10	Fill:1	Stroke:1	StrokeOverFill:0	Justify:CENTER				FillColor:1;1;1	StrokeColor:0;0;0	StrokeWidth:1	Tracking:0				Values:Matu-UtuValues		Layer:5	CompID:4012																PropName:Position	Property:ADBE Transform Group|ADBE Position	Values:11.5799999237061;309.839996337891;0Values		Layer:5	CompID:4012																PropName:Skalierung	Property:ADBE Transform Group|ADBE Scale					Values:0;0;100|100;100;100	Times:0.16|0.4	Interp:1;L;L:ITE;0;16.666666667;0;16.666666667;0;16.666666667:OTE;416.666666666667;16.666666667;416.666666666667;16.666666667;0;16.666666667|2;L;L:ITE;416.666666666667;16.666666667;416.666666666667;16.666666667;0;16.666666667:OTE;0;16.666666667;0;16.666666667;0;16.666666667Text		Layer:6	CompID:4012	Font:Helvetica	FontSize:10	Fill:1	Stroke:1	StrokeOverFill:0	Justify:CENTER				FillColor:1;1;1	StrokeColor:0;0;0	StrokeWidth:1	Tracking:0				Values:H… NoiValues		Layer:6	CompID:4012																PropName:Position	Property:ADBE Transform Group|ADBE Position	Values:857.580017089844;206.970001220703;0Values		Layer:6	CompID:4012																PropName:Skalierung	Property:ADBE Transform Group|ADBE Scale					Values:0;0;100|100;100;100	Times:0.2|0.44	Interp:1;L;L:ITE;0;16.666666667;0;16.666666667;0;16.666666667:OTE;416.666666666667;16.666666667;416.666666666667;16.666666667;0;16.666666667|2;L;L:ITE;416.666666666667;16.666666667;416.666666666667;16.666666667;0;16.666666667:OTE;0;16.666666667;0;16.666666667;0;16.666666667Text		Layer:7	CompID:4012	Font:Helvetica	FontSize:10	Fill:1	Stroke:1	StrokeOverFill:0	Justify:CENTER				FillColor:1;1;1	StrokeColor:0;0;0	StrokeWidth:1	Tracking:0				Values:CaracasValues		Layer:7	CompID:4012																PropName:Position	Property:ADBE Transform Group|ADBE Position	Values:339.239990234375;238.5;0Values		Layer:7	CompID:4012																PropName:Skalierung	Property:ADBE Transform Group|ADBE Scale					Values:0;0;100|100;100;100	Times:0.24|0.48	Interp:1;L;L:ITE;0;16.666666667;0;16.666666667;0;16.666666667:OTE;416.666666666667;16.666666667;416.666666666667;16.666666667;0;16.666666667|2;L;L:ITE;416.666666666667;16.666666667;416.666666666667;16.666666667;0;16.666666667:OTE;0;16.666666667;0;16.666666667;0;16.666666667Text		Layer:8	CompID:4012	Font:Helvetica	FontSize:10	Fill:1	Stroke:1	StrokeOverFill:0	Justify:CENTER				FillColor:1;1;1	StrokeColor:0;0;0	StrokeWidth:1	Tracking:0				Values:Port VilaValues		Layer:8	CompID:4012																PropName:Position	Property:ADBE Transform Group|ADBE Position	Values:1044.9599609375;323.220001220703;0Values		Layer:8	CompID:4012																PropName:Skalierung	Property:ADBE Transform Group|ADBE Scale					Values:0;0;100|100;100;100	Times:0.28|0.52	Interp:1;L;L:ITE;0;16.666666667;0;16.666666667;0;16.666666667:OTE;416.666666666667;16.666666667;416.666666666667;16.666666667;0;16.666666667|2;L;L:ITE;416.666666666667;16.666666667;416.666666666667;16.666666667;0;16.666666667:OTE;0;16.666666667;0;16.666666667;0;16.666666667Text		Layer:9	CompID:4012	Font:Helvetica	FontSize:10	Fill:1	Stroke:1	StrokeOverFill:0	Justify:CENTER				FillColor:1;1;1	StrokeColor:0;0;0	StrokeWidth:1	Tracking:0				Values:TashkentValues		Layer:9	CompID:4012																PropName:Position	Property:ADBE Transform Group|ADBE Position	Values:747.75;146.039993286133;0Values		Layer:9	CompID:4012																PropName:Skalierung	Property:ADBE Transform Group|ADBE Scale					Values:0;0;100|100;100;100	Times:0.32|0.56	Interp:1;L;L:ITE;0;16.666666667;0;16.666666667;0;16.666666667:OTE;416.666666666667;16.666666667;416.666666666667;16.666666667;0;16.666666667|2;L;L:ITE;416.666666666667;16.666666667;416.666666666667;16.666666667;0;16.666666667:OTE;0;16.666666667;0;16.666666667;0;16.666666667Text		Layer:10	CompID:4012	Font:Helvetica	FontSize:10	Fill:1	Stroke:1	StrokeOverFill:0	Justify:CENTER				FillColor:1;1;1	StrokeColor:0;0;0	StrokeWidth:1	Tracking:0				Values:MontevideoValues		Layer:10	CompID:4012																PropName:Position	Property:ADBE Transform Group|ADBE Position	Values:371.459991455078;374.609985351562;0Values		Layer:10	CompID:4012																PropName:Skalierung	Property:ADBE Transform Group|ADBE Scale					Values:0;0;100|100;100;100	Times:0.36|0.6	Interp:1;L;L:ITE;0;16.666666667;0;16.666666667;0;16.666666667:OTE;416.666666666667;16.666666667;416.666666666667;16.666666667;0;16.666666667|2;L;L:ITE;416.666666666667;16.666666667;416.666666666667;16.666666667;0;16.666666667:OTE;0;16.666666667;0;16.666666667;0;16.666666667Text		Layer:11	CompID:4012	Font:Helvetica	FontSize:10	Fill:1	Stroke:1	StrokeOverFill:0	Justify:CENTER				FillColor:1;1;1	StrokeColor:0;0;0	StrokeWidth:1	Tracking:0				Values:Charlotte AmalieValues		Layer:11	CompID:4012																PropName:Position	Property:ADBE Transform Group|ADBE Position	Values:345.209991455078;214.979995727539;0Values		Layer:11	CompID:4012																PropName:Skalierung	Property:ADBE Transform Group|ADBE Scale					Values:0;0;100|100;100;100	Times:0.4|0.64	Interp:1;L;L:ITE;0;16.666666667;0;16.666666667;0;16.666666667:OTE;416.666666666667;16.666666667;416.666666666667;16.666666667;0;16.666666667|2;L;L:ITE;416.666666666667;16.666666667;416.666666666667;16.666666667;0;16.666666667:OTE;0;16.666666667;0;16.666666667;0;16.666666667Text		Layer:12	CompID:4012	Font:Helvetica	FontSize:10	Fill:1	Stroke:1	StrokeOverFill:0	Justify:CENTER				FillColor:1;1;1	StrokeColor:0;0;0	StrokeWidth:1	Tracking:0				Values:Washington%c% D.C.Values		Layer:12	CompID:4012																PropName:Position	Property:ADBE Transform Group|ADBE Position	Values:308.910003662109;153.360000610352;0Values		Layer:12	CompID:4012																PropName:Skalierung	Property:ADBE Transform Group|ADBE Scale					Values:0;0;100|100;100;100	Times:0.44|0.68	Interp:1;L;L:ITE;0;16.666666667;0;16.666666667;0;16.666666667:OTE;416.666666666667;16.666666667;416.666666666667;16.666666667;0;16.666666667|2;L;L:ITE;416.666666666667;16.666666667;416.666666666667;16.666666667;0;16.666666667:OTE;0;16.666666667;0;16.666666667;0;16.666666667Text		Layer:13	CompID:4012	Font:Helvetica	FontSize:10	Fill:1	Stroke:1	StrokeOverFill:0	Justify:CENTER				FillColor:1;1;1	StrokeColor:0;0;0	StrokeWidth:1	Tracking:0				Values:DodomaValues		Layer:13	CompID:4012																PropName:Position	Property:ADBE Transform Group|ADBE Position	Values:647.219970703125;288.510009765625;0Values		Layer:13	CompID:4012																PropName:Skalierung	Property:ADBE Transform Group|ADBE Scale					Values:0;0;100|100;100;100	Times:0.48|0.72	Interp:1;L;L:ITE;0;16.666666667;0;16.666666667;0;16.666666667:OTE;416.666666666667;16.666666667;416.666666666667;16.666666667;0;16.666666667|2;L;L:ITE;416.666666666667;16.666666667;416.666666666667;16.666666667;0;16.666666667:OTE;0;16.666666667;0;16.666666667;0;16.666666667Text		Layer:14	CompID:4012	Font:Helvetica	FontSize:10	Fill:1	Stroke:1	StrokeOverFill:0	Justify:CENTER				FillColor:1;1;1	StrokeColor:0;0;0	StrokeWidth:1	Tracking:0				Values:LondonValues		Layer:14	CompID:4012																PropName:Position	Property:ADBE Transform Group|ADBE Position	Values:539.640014648438;115.5;0Values		Layer:14	CompID:4012																PropName:Skalierung	Property:ADBE Transform Group|ADBE Scale					Values:0;0;100|100;100;100	Times:0.52|0.76	Interp:1;L;L:ITE;0;16.666666667;0;16.666666667;0;16.666666667:OTE;416.666666666667;16.666666667;416.666666666667;16.666666667;0;16.666666667|2;L;L:ITE;416.666666666667;16.666666667;416.666666666667;16.666666667;0;16.666666667:OTE;0;16.666666667;0;16.666666667;0;16.666666667Text		Layer:15	CompID:4012	Font:Helvetica	FontSize:10	Fill:1	Stroke:1	StrokeOverFill:0	Justify:CENTER				FillColor:1;1;1	StrokeColor:0;0;0	StrokeWidth:1	Tracking:0				Values:Abu Zaby (Abu Dhabi)Values		Layer:15	CompID:4012																PropName:Position	Property:ADBE Transform Group|ADBE Position	Values:703.080017089844;196.619995117188;0Values		Layer:15	CompID:4012																PropName:Skalierung	Property:ADBE Transform Group|ADBE Scale					Values:0;0;100|100;100;100	Times:0.56|0.8	Interp:1;L;L:ITE;0;16.666666667;0;16.666666667;0;16.666666667:OTE;416.666666666667;16.666666667;416.666666666667;16.666666667;0;16.666666667|2;L;L:ITE;416.666666666667;16.666666667;416.666666666667;16.666666667;0;16.666666667:OTE;0;16.666666667;0;16.666666667;0;16.666666667Text		Layer:16	CompID:4012	Font:Helvetica	FontSize:10	Fill:1	Stroke:1	StrokeOverFill:0	Justify:CENTER				FillColor:1;1;1	StrokeColor:0;0;0	StrokeWidth:1	Tracking:0				Values:Kyiv (Kiev)Values		Layer:16	CompID:4012																PropName:Position	Property:ADBE Transform Group|ADBE Position	Values:631.559997558594;118.680000305176;0Values		Layer:16	CompID:4012																PropName:Skalierung	Property:ADBE Transform Group|ADBE Scale					Values:0;0;100|100;100;100	Times:0.6|0.84	Interp:1;L;L:ITE;0;16.666666667;0;16.666666667;0;16.666666667:OTE;416.666666666667;16.666666667;416.666666666667;16.666666667;0;16.666666667|2;L;L:ITE;416.666666666667;16.666666667;416.666666666667;16.666666667;0;16.666666667:OTE;0;16.666666667;0;16.666666667;0;16.666666667Text		Layer:17	CompID:4012	Font:Helvetica	FontSize:10	Fill:1	Stroke:1	StrokeOverFill:0	Justify:CENTER				FillColor:1;1;1	StrokeColor:0;0;0	StrokeWidth:1	Tracking:0				Values:KampalaValues		Layer:17	CompID:4012																PropName:Position	Property:ADBE Transform Group|ADBE Position	Values:637.739990234375;269.040008544922;0Values		Layer:17	CompID:4012																PropName:Skalierung	Property:ADBE Transform Group|ADBE Scale					Values:0;0;100|100;100;100	Times:0.64|0.88	Interp:1;L;L:ITE;0;16.666666667;0;16.666666667;0;16.666666667:OTE;416.666666666667;16.666666667;416.666666666667;16.666666667;0;16.666666667|2;L;L:ITE;416.666666666667;16.666666667;416.666666666667;16.666666667;0;16.666666667:OTE;0;16.666666667;0;16.666666667;0;16.666666667Text		Layer:18	CompID:4012	Font:Helvetica	FontSize:10	Fill:1	Stroke:1	StrokeOverFill:0	Justify:CENTER				FillColor:1;1;1	StrokeColor:0;0;0	StrokeWidth:1	Tracking:0				Values:FunafutiValues		Layer:18	CompID:4012																PropName:Position	Property:ADBE Transform Group|ADBE Position	Values:1077.63000488281;295.529998779297;0Values		Layer:18	CompID:4012																PropName:Skalierung	Property:ADBE Transform Group|ADBE Scale					Values:0;0;100|100;100;100	Times:0.68|0.92	Interp:1;L;L:ITE;0;16.666666667;0;16.666666667;0;16.666666667:OTE;416.666666666667;16.666666667;416.666666666667;16.666666667;0;16.666666667|2;L;L:ITE;416.666666666667;16.666666667;416.666666666667;16.666666667;0;16.666666667:OTE;0;16.666666667;0;16.666666667;0;16.666666667Text		Layer:19	CompID:4012	Font:Helvetica	FontSize:10	Fill:1	Stroke:1	StrokeOverFill:0	Justify:CENTER				FillColor:1;1;1	StrokeColor:0;0;0	StrokeWidth:1	Tracking:0				Values:Cockburn TownValues		Layer:19	CompID:4012																PropName:Position	Property:ADBE Transform Group|ADBE Position	Values:326.609985351562;205.589996337891;0Values		Layer:19	CompID:4012																PropName:Skalierung	Property:ADBE Transform Group|ADBE Scale					Values:0;0;100|100;100;100	Times:0.72|0.96	Interp:1;L;L:ITE;0;16.666666667;0;16.666666667;0;16.666666667:OTE;416.666666666667;16.666666667;416.666666666667;16.666666667;0;16.666666667|2;L;L:ITE;416.666666666667;16.666666667;416.666666666667;16.666666667;0;16.666666667:OTE;0;16.666666667;0;16.666666667;0;16.666666667Text		Layer:20	CompID:4012	Font:Helvetica	FontSize:10	Fill:1	Stroke:1	StrokeOverFill:0	Justify:CENTER				FillColor:1;1;1	StrokeColor:0;0;0	StrokeWidth:1	Tracking:0				Values:AshgabatValues		Layer:20	CompID:4012																PropName:Position	Property:ADBE Transform Group|ADBE Position	Values:715.140014648438;156.149993896484;0Values		Layer:20	CompID:4012																PropName:Skalierung	Property:ADBE Transform Group|ADBE Scale					Values:0;0;100|100;100;100	Times:0.76|1	Interp:1;L;L:ITE;0;16.666666667;0;16.666666667;0;16.666666667:OTE;416.666666666667;16.666666667;416.666666666667;16.666666667;0;16.666666667|2;L;L:ITE;416.666666666667;16.666666667;416.666666666667;16.666666667;0;16.666666667:OTE;0;16.666666667;0;16.666666667;0;16.666666667Text		Layer:21	CompID:4012	Font:Helvetica	FontSize:10	Fill:1	Stroke:1	StrokeOverFill:0	Justify:CENTER				FillColor:1;1;1	StrokeColor:0;0;0	StrokeWidth:1	Tracking:0				Values:AnkaraValues		Layer:21	CompID:4012																PropName:Position	Property:ADBE Transform Group|ADBE Position	Values:638.489990234375;150.240005493164;0Values		Layer:21	CompID:4012																PropName:Skalierung	Property:ADBE Transform Group|ADBE Scale					Values:0;0;100|100;100;100	Times:0.8|1.04	Interp:1;L;L:ITE;0;16.666666667;0;16.666666667;0;16.666666667:OTE;416.666666666667;16.666666667;416.666666666667;16.666666667;0;16.666666667|2;L;L:ITE;416.666666666667;16.666666667;416.666666666667;16.666666667;0;16.666666667:OTE;0;16.666666667;0;16.666666667;0;16.666666667Text		Layer:22	CompID:4012	Font:Helvetica	FontSize:10	Fill:1	Stroke:1	StrokeOverFill:0	Justify:CENTER				FillColor:1;1;1	StrokeColor:0;0;0	StrokeWidth:1	Tracking:0				Values:TunisValues		Layer:22	CompID:4012																PropName:Position	Property:ADBE Transform Group|ADBE Position	Values:570.539978027344;159.600006103516;0Values		Layer:22	CompID:4012																PropName:Skalierung	Property:ADBE Transform Group|ADBE Scale					Values:0;0;100|100;100;100	Times:0.84|1.08	Interp:1;L;L:ITE;0;16.666666667;0;16.666666667;0;16.666666667:OTE;416.666666666667;16.666666667;416.666666666667;16.666666667;0;16.666666667|2;L;L:ITE;416.666666666667;16.666666667;416.666666666667;16.666666667;0;16.666666667:OTE;0;16.666666667;0;16.666666667;0;16.666666667Text		Layer:23	CompID:4012	Font:Helvetica	FontSize:10	Fill:1	Stroke:1	StrokeOverFill:0	Justify:CENTER				FillColor:1;1;1	StrokeColor:0;0;0	StrokeWidth:1	Tracking:0				Values:Port of SpainValues		Layer:23	CompID:4012																PropName:Position	Property:ADBE Transform Group|ADBE Position	Values:355.440002441406;238.050003051758;0Values		Layer:23	CompID:4012																PropName:Skalierung	Property:ADBE Transform Group|ADBE Scale					Values:0;0;100|100;100;100	Times:0.88|1.12	Interp:1;L;L:ITE;0;16.666666667;0;16.666666667;0;16.666666667:OTE;416.666666666667;16.666666667;416.666666666667;16.666666667;0;16.666666667|2;L;L:ITE;416.666666666667;16.666666667;416.666666666667;16.666666667;0;16.666666667:OTE;0;16.666666667;0;16.666666667;0;16.666666667Text		Layer:24	CompID:4012	Font:Helvetica	FontSize:10	Fill:1	Stroke:1	StrokeOverFill:0	Justify:CENTER				FillColor:1;1;1	StrokeColor:0;0;0	StrokeWidth:1	Tracking:0				Values:Nuku'alofaValues		Layer:24	CompID:4012																PropName:Position	Property:ADBE Transform Group|ADBE Position	Values:14.3400001525879;333.420013427734;0Values		Layer:24	CompID:4012																PropName:Skalierung	Property:ADBE Transform Group|ADBE Scale					Values:0;0;100|100;100;100	Times:0.92|1.16	Interp:1;L;L:ITE;0;16.666666667;0;16.666666667;0;16.666666667:OTE;416.666666666667;16.666666667;416.666666666667;16.666666667;0;16.666666667|2;L;L:ITE;416.666666666667;16.666666667;416.666666666667;16.666666667;0;16.666666667:OTE;0;16.666666667;0;16.666666667;0;16.666666667Text		Layer:25	CompID:4012	Font:Helvetica	FontSize:10	Fill:1	Stroke:1	StrokeOverFill:0	Justify:CENTER				FillColor:1;1;1	StrokeColor:0;0;0	StrokeWidth:1	Tracking:0				Values:Lom‚Values		Layer:25	CompID:4012																PropName:Position	Property:ADBE Transform Group|ADBE Position	Values:544.049987792969;251.490005493164;0Values		Layer:25	CompID:4012																PropName:Skalierung	Property:ADBE Transform Group|ADBE Scale					Values:0;0;100|100;100;100	Times:0.96|1.2	Interp:1;L;L:ITE;0;16.666666667;0;16.666666667;0;16.666666667:OTE;416.666666666667;16.666666667;416.666666666667;16.666666667;0;16.666666667|2;L;L:ITE;416.666666666667;16.666666667;416.666666666667;16.666666667;0;16.666666667:OTE;0;16.666666667;0;16.666666667;0;16.666666667Text		Layer:26	CompID:4012	Font:Helvetica	FontSize:10	Fill:1	Stroke:1	StrokeOverFill:0	Justify:CENTER				FillColor:1;1;1	StrokeColor:0;0;0	StrokeWidth:1	Tracking:0				Values:DiliValues		Layer:26	CompID:4012																PropName:Position	Property:ADBE Transform Group|ADBE Position	Values:916.739990234375;295.739990234375;0Values		Layer:26	CompID:4012																PropName:Skalierung	Property:ADBE Transform Group|ADBE Scale					Values:0;0;100|100;100;100	Times:1|1.24	Interp:1;L;L:ITE;0;16.666666667;0;16.666666667;0;16.666666667:OTE;416.666666666667;16.666666667;416.666666666667;16.666666667;0;16.666666667|2;L;L:ITE;416.666666666667;16.666666667;416.666666666667;16.666666667;0;16.666666667:OTE;0;16.666666667;0;16.666666667;0;16.666666667Text		Layer:27	CompID:4012	Font:Helvetica	FontSize:10	Fill:1	Stroke:1	StrokeOverFill:0	Justify:CENTER				FillColor:1;1;1	StrokeColor:0;0;0	StrokeWidth:1	Tracking:0				Values:Krung Thep (Bangkok)Values		Layer:27	CompID:4012																PropName:Position	Property:ADBE Transform Group|ADBE Position	Values:841.559997558594;228.75;0Values		Layer:27	CompID:4012																PropName:Skalierung	Property:ADBE Transform Group|ADBE Scale					Values:0;0;100|100;100;100	Times:1.04|1.28	Interp:1;L;L:ITE;0;16.666666667;0;16.666666667;0;16.666666667:OTE;416.666666666667;16.666666667;416.666666666667;16.666666667;0;16.666666667|2;L;L:ITE;416.666666666667;16.666666667;416.666666666667;16.666666667;0;16.666666667:OTE;0;16.666666667;0;16.666666667;0;16.666666667Text		Layer:28	CompID:4012	Font:Helvetica	FontSize:10	Fill:1	Stroke:1	StrokeOverFill:0	Justify:CENTER				FillColor:1;1;1	StrokeColor:0;0;0	StrokeWidth:1	Tracking:0				Values:SkopjeValues		Layer:28	CompID:4012																PropName:Position	Property:ADBE Transform Group|ADBE Position	Values:604.380004882812;144;0Values		Layer:28	CompID:4012																PropName:Skalierung	Property:ADBE Transform Group|ADBE Scale					Values:0;0;100|100;100;100	Times:1.08|1.32	Interp:1;L;L:ITE;0;16.666666667;0;16.666666667;0;16.666666667:OTE;416.666666666667;16.666666667;416.666666666667;16.666666667;0;16.666666667|2;L;L:ITE;416.666666666667;16.666666667;416.666666666667;16.666666667;0;16.666666667:OTE;0;16.666666667;0;16.666666667;0;16.666666667Text		Layer:29	CompID:4012	Font:Helvetica	FontSize:10	Fill:1	Stroke:1	StrokeOverFill:0	Justify:CENTER				FillColor:1;1;1	StrokeColor:0;0;0	StrokeWidth:1	Tracking:0				Values:DushanbeValues		Layer:29	CompID:4012																PropName:Position	Property:ADBE Transform Group|ADBE Position	Values:746.549987792969;154.110000610352;0Values		Layer:29	CompID:4012																PropName:Skalierung	Property:ADBE Transform Group|ADBE Scale					Values:0;0;100|100;100;100	Times:1.12|1.36	Interp:1;L;L:ITE;0;16.666666667;0;16.666666667;0;16.666666667:OTE;416.666666666667;16.666666667;416.666666666667;16.666666667;0;16.666666667|2;L;L:ITE;416.666666666667;16.666666667;416.666666666667;16.666666667;0;16.666666667:OTE;0;16.666666667;0;16.666666667;0;16.666666667Text		Layer:30	CompID:4012	Font:Helvetica	FontSize:10	Fill:1	Stroke:1	StrokeOverFill:0	Justify:CENTER				FillColor:1;1;1	StrokeColor:0;0;0	StrokeWidth:1	Tracking:0				Values:Dimashq (Damascus)Values		Layer:30	CompID:4012																PropName:Position	Property:ADBE Transform Group|ADBE Position	Values:648.929992675781;169.5;0Values		Layer:30	CompID:4012																PropName:Skalierung	Property:ADBE Transform Group|ADBE Scale					Values:0;0;100|100;100;100	Times:1.16|1.4	Interp:1;L;L:ITE;0;16.666666667;0;16.666666667;0;16.666666667:OTE;416.666666666667;16.666666667;416.666666666667;16.666666667;0;16.666666667|2;L;L:ITE;416.666666666667;16.666666667;416.666666666667;16.666666667;0;16.666666667:OTE;0;16.666666667;0;16.666666667;0;16.666666667Text		Layer:31	CompID:4012	Font:Helvetica	FontSize:10	Fill:1	Stroke:1	StrokeOverFill:0	Justify:CENTER				FillColor:1;1;1	StrokeColor:0;0;0	StrokeWidth:1	Tracking:0				Values:BernValues		Layer:31	CompID:4012																PropName:Position	Property:ADBE Transform Group|ADBE Position	Values:562.409973144531;129.240005493164;0